aTV_x aTV_y aTV_z aX aY aZ kX kY kZ
-0.033425 0.018450 0.053050 / -0.033425 0.018450 0.053050 / -0.050137 0.027675 0.079575
-0.033425 0.018450 0.053050 / -0.066850 0.036900 0.106100 / -0.133700 0.073800 0.212200
-0.033425 0.018450 0.053050 / -0.100275 0.055350 0.159150 / -0.250687 0.138375 0.397875
-0.033425 0.018450 0.053050 / -0.133700 0.073800 0.212200 / -0.401100 0.221400 0.636600
-0.033425 0.018450 0.053050 / -0.167125 0.092250 0.265250 / -0.584937 0.322875 0.928376
-0.033425 0.018450 0.053050 / -0.200550 0.110700 0.318300 / -0.802200 0.442800 1.273201
-0.033425 0.018450 0.053050 / -0.233975 0.129150 0.371350 / -1.052887 0.581175 1.671076
-0.033425 0.018450 0.053050 / -0.267400 0.147600 0.424400 / -1.337000 0.738000 2.122001
-0.033425 0.018450 0.053050 / -0.300825 0.166050 0.477450 / -1.654537 0.913275 2.625977
-0.033425 0.018450 0.053050 / -0.334250 0.184500 0.530500 / -2.005499 1.107000 3.183002
-0.033425 0.018450 0.053050 / -0.367675 0.202950 0.583550 / -2.389887 1.319175 3.793078
-0.033425 0.018450 0.053050 / -0.401100 0.221400 0.636600 / -2.807699 1.549800 4.456203
-0.033425 0.018450 0.053050 / -0.434525 0.239850 0.689650 / -3.258936 1.798875 5.172379
-0.033425 0.018450 0.053050 / -0.467950 0.258300 0.742701 / -3.743599 2.066400 5.941604
-0.033425 0.018450 0.053050 / -0.501375 0.276750 0.795751 / -4.261686 2.352374 6.763880
-0.033425 0.018450 0.053050 / -0.534800 0.295200 0.848801 / -4.813198 2.656799 7.639205
-0.033425 0.018450 0.053050 / -0.568225 0.313650 0.901851 / -5.398136 2.979674 8.567581
-0.033425 0.018450 0.053050 / -0.601650 0.332100 0.954901 / -6.016498 3.320999 9.549007
-0.033425 0.018450 0.053050 / -0.635075 0.350550 1.007951 / -6.668285 3.680774 10.583482
-0.033425 0.018450 0.053050 / -0.668500 0.369000 1.061001 / -7.353497 4.058999 11.671008
-0.033425 0.018450 0.053050 / -0.701925 0.387450 1.114051 / -8.072135 4.455674 12.811584
-0.033425 0.018450 0.053050 / -0.735350 0.405900 1.167101 / -8.824197 4.870799 14.005210
-0.033425 0.018450 0.053050 / -0.768775 0.424350 1.220151 / -9.609684 5.304374 15.251886
-0.033425 0.018450 0.053050 / -0.802200 0.442800 1.273201 / -10.428596 5.756399 16.551612
-0.033425 0.018450 0.053050 / -0.835625 0.461250 1.326251 / -11.280934 6.226874 17.904388
-0.033425 0.018450 0.053050 / -0.869050 0.479700 1.379301 / -12.166696 6.715798 19.310214
-0.033425 0.018450 0.053050 / -0.902475 0.498150 1.432351 / -13.085883 7.223173 20.769090
-0.033425 0.018450 0.053050 / -0.935900 0.516600 1.485401 / -14.038495 7.748998 22.281016
-0.033425 0.018450 0.053050 / -0.969325 0.535050 1.538451 / -15.024532 8.293273 23.845992
-0.033425 0.018450 0.053050 / -1.002750 0.553500 1.591501 / -16.043994 8.855998 25.464018
-0.033425 0.018450 0.053050 / -1.036175 0.571950 1.644551 / -17.096882 9.437173 27.135094
-0.033425 0.018450 0.053050 / -1.069600 0.590400 1.697601 / -18.183194 10.036798 28.859220
-0.033425 0.018450 0.053050 / -1.103025 0.608850 1.750651 / -19.302931 10.654872 30.636397
-0.033425 0.018450 0.053050 / -1.136450 0.627300 1.803701 / -20.456093 11.291397 32.466623
-0.033425 0.018450 0.053050 / -1.169875 0.645750 1.856751 / -21.642680 11.946372 34.349899
-0.033425 0.018450 0.053050 / -1.203300 0.664200 1.909801 / -22.862692 12.619797 36.286226
-0.033425 0.018450 0.053050 / -1.236725 0.682650 1.962851 / -24.116129 13.311672 38.275602
-0.033425 0.018450 0.053050 / -1.270150 0.701100 2.015901 / -25.402991 14.021997 40.318028
-0.033425 0.018450 0.053050 / -1.303575 0.719550 2.068951 / -26.723278 14.750772 42.413505
-0.033425 0.018450 0.053050 / -1.337000 0.738000 2.122001 / -28.076990 15.497996 44.562031
-0.032775 0.019150 0.025850 / -1.369775 0.757150 2.147852 / -29.463152 16.264721 46.722808
-0.032775 0.019150 0.025850 / -1.402550 0.776300 2.173702 / -30.882089 17.050596 48.909435
-0.032775 0.019150 0.025850 / -1.435324 0.795450 2.199552 / -32.333801 17.855621 51.121911
-0.032775 0.019150 0.025850 / -1.468099 0.814600 2.225402 / -33.818288 18.679796 53.360238
-0.032775 0.019150 0.025850 / -1.500874 0.833750 2.251252 / -35.335550 19.523121 55.624414
-0.032775 0.019150 0.025850 / -1.533649 0.852900 2.277102 / -36.885587 20.385595 57.914441
-0.032775 0.019150 0.025850 / -1.566424 0.872050 2.302952 / -38.468399 21.267220 60.230317
-0.032775 0.019150 0.025850 / -1.599199 0.891200 2.328802 / -40.083986 22.167995 62.572044
-0.032775 0.019150 0.025850 / -1.631974 0.910350 2.354652 / -41.732348 23.087920 64.939620
-0.032775 0.019150 0.025850 / -1.664749 0.929500 2.380502 / -43.413485 24.026995 67.333047
-0.032775 0.019150 0.025850 / -1.697524 0.948650 2.406352 / -45.127397 24.985220 69.752324
-0.032775 0.019150 0.025850 / -1.730299 0.967800 2.432202 / -46.874083 25.962595 72.197450
-0.032775 0.019150 0.025850 / -1.763074 0.986950 2.458052 / -48.653545 26.959119 74.668427
-0.032775 0.019150 0.025850 / -1.795849 1.006100 2.483902 / -50.465782 27.974794 77.165253
-0.032775 0.019150 0.025850 / -1.828624 1.025250 2.509752 / -52.310794 29.009619 79.687930
-0.032775 0.019150 0.025850 / -1.861399 1.044400 2.535602 / -54.188581 30.063594 82.236457
-0.032775 0.019150 0.025850 / -1.894174 1.063550 2.561452 / -56.099142 31.136719 84.810833
-0.032775 0.019150 0.025850 / -1.926949 1.082700 2.587302 / -58.042479 32.228994 87.411060
-0.032775 0.019150 0.025850 / -1.959724 1.101850 2.613152 / -60.018591 33.340419 90.037137
-0.032775 0.019150 0.025850 / -1.992499 1.121000 2.639002 / -62.027478 34.470994 92.689063
-0.032775 0.019150 0.025850 / -2.025274 1.140150 2.664852 / -64.069139 35.620719 95.366840
-0.032775 0.019150 0.025850 / -2.058049 1.159300 2.690702 / -66.143576 36.789594 98.070467
-0.032775 0.019150 0.025850 / -2.090824 1.178450 2.716552 / -68.250788 37.977618 100.799944
-0.032775 0.019150 0.025850 / -2.123599 1.197600 2.742402 / -70.390774 39.184793 103.555270
-0.032775 0.019150 0.025850 / -2.156374 1.216750 2.768252 / -72.563536 40.411118 106.336447
-0.032775 0.019150 0.025850 / -2.189149 1.235900 2.794102 / -74.769073 41.656593 109.143474
-0.032775 0.019150 0.025850 / -2.221924 1.255050 2.819952 / -77.007384 42.921218 111.976351
-0.032775 0.019150 0.025850 / -2.254699 1.274200 2.845802 / -79.278471 44.204993 114.835077
-0.032775 0.019150 0.025850 / -2.287474 1.293350 2.871652 / -81.582332 45.507918 117.719654
-0.032775 0.019150 0.025850 / -2.320249 1.312500 2.897502 / -83.918969 46.829993 120.630081
-0.032775 0.019150 0.025850 / -2.353024 1.331650 2.923352 / -86.288381 48.171218 123.566358
-0.032775 0.019150 0.025850 / -2.385799 1.350800 2.949202 / -88.690567 49.531593 126.528484
-0.032775 0.019150 0.025850 / -2.418574 1.369950 2.975052 / -91.125529 50.911118 129.516461
-0.032775 0.019150 0.025850 / -2.451349 1.389100 3.000902 / -93.593265 52.309793 132.530288
-0.032775 0.019150 0.025850 / -2.484124 1.408250 3.026752 / -96.093777 53.727618 135.569965
-0.032775 0.019150 0.025850 / -2.516899 1.427400 3.052602 / -98.627063 55.164593 138.635492
-0.032775 0.019150 0.025850 / -2.549674 1.446550 3.078452 / -101.193125 56.620718 141.726869
-0.032775 0.019150 0.025850 / -2.582449 1.465700 3.104302 / -103.791961 58.095993 144.844095
-0.032775 0.019150 0.025850 / -2.615224 1.484850 3.130152 / -106.423573 59.590418 147.987172
-0.032775 0.019150 0.025850 / -2.647999 1.504000 3.156002 / -109.087959 61.103993 151.156099
-0.030325 0.021525 0.013875 / -2.678324 1.525525 3.169877 / -111.781445 62.640280 154.332914
-0.030325 0.021525 0.013875 / -2.708649 1.547050 3.183752 / -114.505257 64.198092 157.523603
-0.030325 0.021525 0.013875 / -2.738974 1.568575 3.197627 / -117.259393 65.777430 160.728167
-0.030325 0.021525 0.013875 / -2.769299 1.590100 3.211502 / -120.043855 67.378292 163.946607
-0.030325 0.021525 0.013875 / -2.799624 1.611625 3.225377 / -122.858641 69.000680 167.178921
-0.030325 0.021525 0.013875 / -2.829949 1.633150 3.239252 / -125.703752 70.644592 170.425111
-0.030325 0.021525 0.013875 / -2.860274 1.654675 3.253127 / -128.579189 72.310029 173.685175
-0.030325 0.021525 0.013875 / -2.890599 1.676200 3.267002 / -131.484950 73.996991 176.959114
-0.030325 0.021525 0.013875 / -2.920924 1.697725 3.280877 / -134.421036 75.705479 180.246929
-0.030325 0.021525 0.013875 / -2.951249 1.719250 3.294752 / -137.387448 77.435491 183.548618
-0.030325 0.021525 0.013875 / -2.981574 1.740775 3.308627 / -140.384184 79.187028 186.864183
-0.030325 0.021525 0.013875 / -3.011899 1.762300 3.322502 / -143.411245 80.960090 190.193622
-0.030325 0.021525 0.013875 / -3.042224 1.783825 3.336377 / -146.468631 82.754677 193.536937
-0.030325 0.021525 0.013875 / -3.072549 1.805350 3.350252 / -149.556343 84.570789 196.894126
-0.030325 0.021525 0.013875 / -3.102874 1.826875 3.364127 / -152.674379 86.408426 200.265191
-0.030325 0.021525 0.013875 / -3.133199 1.848400 3.378002 / -155.822740 88.267588 203.650130
-0.030325 0.021525 0.013875 / -3.163524 1.869925 3.391877 / -159.001426 90.148275 207.048945
-0.030325 0.021525 0.013875 / -3.193849 1.891449 3.405752 / -162.210438 92.050487 210.461634
-0.030325 0.021525 0.013875 / -3.224174 1.912974 3.419627 / -165.449774 93.974224 213.888199
-0.030325 0.021525 0.013875 / -3.254499 1.934499 3.433502 / -168.719435 95.919486 217.328638
-0.030325 0.021525 0.013875 / -3.284824 1.956024 3.447377 / -172.019421 97.886273 220.782953
-0.030325 0.021525 0.013875 / -3.315149 1.977549 3.461252 / -175.349732 99.874585 224.251142
-0.030325 0.021525 0.013875 / -3.345474 1.999074 3.475127 / -178.710368 101.884422 227.733207
-0.030325 0.021525 0.013875 / -3.375799 2.020599 3.489002 / -182.101330 103.915784 231.229146
-0.030325 0.021525 0.013875 / -3.406124 2.042124 3.502877 / -185.522616 105.968671 234.738961
-0.030325 0.021525 0.013875 / -3.436449 2.063649 3.516752 / -188.974227 108.043082 238.262650
-0.030325 0.021525 0.013875 / -3.466774 2.085174 3.530627 / -192.456163 110.139019 241.800215
-0.030325 0.021525 0.013875 / -3.497099 2.106699 3.544502 / -195.968424 112.256481 245.351655
-0.030325 0.021525 0.013875 / -3.527424 2.128224 3.558377 / -199.511010 114.395467 248.916969
-0.030325 0.021525 0.013875 / -3.557749 2.149749 3.572252 / -203.083921 116.555979 252.496159
-0.030325 0.021525 0.013875 / -3.588074 2.171274 3.586127 / -206.687157 118.738016 256.089223
-0.030325 0.021525 0.013875 / -3.618399 2.192799 3.600002 / -210.320718 120.941577 259.696163
-0.030325 0.021525 0.013875 / -3.648724 2.214324 3.613877 / -213.984604 123.166664 263.316978
-0.030325 0.021525 0.013875 / -3.679049 2.235849 3.627752 / -217.678815 125.413275 266.951667
-0.030325 0.021525 0.013875 / -3.709374 2.257374 3.641627 / -221.403351 127.681412 270.600232
-0.030325 0.021525 0.013875 / -3.739698 2.278899 3.655502 / -225.158212 129.971074 274.262672
-0.030325 0.021525 0.013875 / -3.770023 2.300424 3.669377 / -228.943398 132.282260 277.938986
-0.030325 0.021525 0.013875 / -3.800348 2.321949 3.683252 / -232.758909 134.614971 281.629176
-0.030325 0.021525 0.013875 / -3.830673 2.343474 3.697127 / -236.604745 136.969208 285.333241
-0.030325 0.021525 0.013875 / -3.860998 2.364999 3.711002 / -240.480906 139.344969 289.051180
-0.021900 -0.002400 -0.011950 / -3.882898 2.362599 3.699052 / -244.374755 141.706368 292.744257
-0.021900 -0.002400 -0.011950 / -3.904799 2.360199 3.687102 / -248.290503 144.065367 296.425385
-0.021900 -0.002400 -0.011950 / -3.926699 2.357799 3.675152 / -252.228152 146.421966 300.094562
-0.021900 -0.002400 -0.011950 / -3.948599 2.355399 3.663202 / -256.187700 148.776165 303.751789
-0.021900 -0.002400 -0.011950 / -3.970499 2.352999 3.651252 / -260.169149 151.127964 307.397066
-0.021900 -0.002400 -0.011950 / -3.992399 2.350599 3.639302 / -264.172497 153.477362 311.030394
-0.021900 -0.002400 -0.011950 / -4.014299 2.348199 3.627352 / -268.197746 155.824361 314.651771
-0.021900 -0.002400 -0.011950 / -4.036199 2.345799 3.615402 / -272.244895 158.168960 318.261198
-0.021900 -0.002400 -0.011950 / -4.058099 2.343399 3.603452 / -276.313944 160.511159 321.858675
-0.021900 -0.002400 -0.011950 / -4.079999 2.340999 3.591502 / -280.404892 162.850958 325.444203
-0.021900 -0.002400 -0.011950 / -4.101899 2.338599 3.579552 / -284.517741 165.188356 329.017780
-0.021900 -0.002400 -0.011950 / -4.123799 2.336199 3.567602 / -288.652490 167.523355 332.579407
-0.021900 -0.002400 -0.011950 / -4.145699 2.333799 3.555652 / -292.809139 169.855954 336.129085
-0.021900 -0.002400 -0.011950 / -4.167599 2.331399 3.543702 / -296.987688 172.186153 339.666812
-0.021900 -0.002400 -0.011950 / -4.189499 2.328999 3.531752 / -301.188136 174.513951 343.192590
-0.021900 -0.002400 -0.011950 / -4.211399 2.326599 3.519802 / -305.410485 176.839350 346.706417
-0.021900 -0.002400 -0.011950 / -4.233299 2.324199 3.507852 / -309.654734 179.162349 350.208294
-0.021900 -0.002400 -0.011950 / -4.255199 2.321799 3.495902 / -313.920883 181.482948 353.698222
-0.021900 -0.002400 -0.011950 / -4.277099 2.319399 3.483952 / -318.208932 183.801146 357.176199
-0.021900 -0.002400 -0.011950 / -4.298999 2.316999 3.472002 / -322.518881 186.116945 360.642227
-0.021900 -0.002400 -0.011950 / -4.320899 2.314599 3.460052 / -326.850730 188.430344 364.096304
-0.021900 -0.002400 -0.011950 / -4.342799 2.312199 3.448102 / -331.204479 190.741342 367.538432
-0.021900 -0.002400 -0.011950 / -4.364699 2.309799 3.436152 / -335.580129 193.049941 370.968609
-0.021900 -0.002400 -0.011950 / -4.386599 2.307399 3.424203 / -339.977678 195.356140 374.386837
-0.021900 -0.002400 -0.011950 / -4.408499 2.304999 3.412253 / -344.397127 197.659938 377.793114
-0.021900 -0.002400 -0.011950 / -4.430399 2.302599 3.400303 / -348.838476 199.961337 381.187442
-0.021900 -0.002400 -0.011950 / -4.452299 2.300199 3.388353 / -353.301725 202.260335 384.569819
-0.021900 -0.002400 -0.011950 / -4.474199 2.297799 3.376403 / -357.786874 204.556934 387.940247
-0.021900 -0.002400 -0.011950 / -4.496099 2.295399 3.364453 / -362.293924 206.851133 391.298724
-0.021900 -0.002400 -0.011950 / -4.517999 2.292999 3.352503 / -366.822873 209.142931 394.645252
-0.021900 -0.002400 -0.011950 / -4.539899 2.290599 3.340553 / -371.373722 211.432330 397.979830
-0.021900 -0.002400 -0.011950 / -4.561799 2.288199 3.328603 / -375.946472 213.719328 401.302457
-0.021900 -0.002400 -0.011950 / -4.583699 2.285799 3.316653 / -380.541121 216.003927 404.613135
-0.021900 -0.002400 -0.011950 / -4.605599 2.283399 3.304703 / -385.157671 218.286125 407.911862
-0.021900 -0.002400 -0.011950 / -4.627499 2.280999 3.292753 / -389.796120 220.565924 411.198640
-0.021900 -0.002400 -0.011950 / -4.649399 2.278599 3.280803 / -394.456469 222.843322 414.473468
-0.021900 -0.002400 -0.011950 / -4.671299 2.276199 3.268853 / -399.138719 225.118321 417.736345
-0.021900 -0.002400 -0.011950 / -4.693200 2.273798 3.256903 / -403.842869 227.390919 420.987273
-0.021900 -0.002400 -0.011950 / -4.715100 2.271398 3.244953 / -408.568918 229.661118 424.226251
-0.021900 -0.002400 -0.011950 / -4.737000 2.268998 3.233003 / -413.316868 231.928916 427.453279
-0.011575 -0.011425 -0.001950 / -4.748575 2.257574 3.231053 / -418.071230 234.180777 430.683356
-0.011575 -0.011425 -0.001950 / -4.760150 2.246149 3.229103 / -422.837167 236.421214 433.911484
-0.011575 -0.011425 -0.001950 / -4.771725 2.234724 3.227153 / -427.614679 238.650225 437.137662
-0.011575 -0.011425 -0.001950 / -4.783300 2.223299 3.225203 / -432.403766 240.867811 440.361890
-0.011575 -0.011425 -0.001950 / -4.794875 2.211874 3.223253 / -437.204428 243.073972 443.584167
-0.011575 -0.011425 -0.001950 / -4.806450 2.200449 3.221303 / -442.016665 245.268708 446.804495
-0.011575 -0.011425 -0.001950 / -4.818025 2.189024 3.219353 / -446.840477 247.452019 450.022873
-0.011575 -0.011425 -0.001950 / -4.829600 2.177599 3.217403 / -451.675864 249.623906 453.239301
-0.011575 -0.011425 -0.001950 / -4.841175 2.166174 3.215453 / -456.522826 251.784367 456.453779
-0.011575 -0.011425 -0.001950 / -4.852750 2.154749 3.213503 / -461.381363 253.933403 459.666307
-0.011575 -0.011425 -0.001950 / -4.864325 2.143324 3.211553 / -466.251475 256.071015 462.876884
-0.011575 -0.011425 -0.001950 / -4.875900 2.131899 3.209603 / -471.133162 258.197201 466.085512
-0.011575 -0.011425 -0.001950 / -4.887475 2.120474 3.207653 / -476.026424 260.311962 469.292190
-0.011575 -0.011425 -0.001950 / -4.899050 2.109049 3.205703 / -480.931261 262.415299 472.496918
-0.011575 -0.011425 -0.001950 / -4.910625 2.097624 3.203753 / -485.847674 264.507210 475.699696
-0.011575 -0.011425 -0.001950 / -4.922200 2.086199 3.201803 / -490.775661 266.587697 478.900524
-0.011575 -0.011425 -0.001950 / -4.933775 2.074774 3.199853 / -495.715223 268.656758 482.099402
-0.011575 -0.011425 -0.001950 / -4.945350 2.063349 3.197903 / -500.666360 270.714395 485.296330
-0.011575 -0.011425 -0.001950 / -4.956925 2.051924 3.195953 / -505.629072 272.760607 488.491308
-0.011575 -0.011425 -0.001950 / -4.968500 2.040499 3.194003 / -510.603359 274.795393 491.684336
-0.011575 -0.011425 -0.001950 / -4.980075 2.029074 3.192053 / -515.589221 276.818755 494.875414
-0.011575 -0.011425 -0.001950 / -4.991650 2.017649 3.190103 / -520.586658 278.830692 498.064542
-0.011575 -0.011425 -0.001950 / -5.003225 2.006224 3.188153 / -525.595670 280.831204 501.251720
-0.011575 -0.011425 -0.001950 / -5.014800 1.994799 3.186203 / -530.616257 282.820290 504.436948
-0.011575 -0.011425 -0.001950 / -5.026375 1.983374 3.184253 / -535.648419 284.797952 507.620226
-0.011575 -0.011425 -0.001950 / -5.037950 1.971949 3.182303 / -540.692156 286.764189 510.801554
-0.011575 -0.011425 -0.001950 / -5.049525 1.960524 3.180353 / -545.747468 288.719001 513.980932
-0.011575 -0.011425 -0.001950 / -5.061100 1.949099 3.178403 / -550.814355 290.662388 517.158360
-0.011575 -0.011425 -0.001950 / -5.072675 1.937674 3.176453 / -555.892817 292.594350 520.333838
-0.011575 -0.011425 -0.001950 / -5.084250 1.926249 3.174503 / -560.982854 294.514887 523.507366
-0.011575 -0.011425 -0.001950 / -5.095825 1.914825 3.172553 / -566.084466 296.423999 526.678944
-0.011575 -0.011425 -0.001950 / -5.107400 1.903400 3.170603 / -571.197653 298.321686 529.848572
-0.011575 -0.011425 -0.001950 / -5.118975 1.891975 3.168653 / -576.322415 300.207948 533.016250
-0.011575 -0.011425 -0.001950 / -5.130550 1.880550 3.166703 / -581.458752 302.082785 536.181978
-0.011575 -0.011425 -0.001950 / -5.142125 1.869125 3.164753 / -586.606664 303.946197 539.345756
-0.011575 -0.011425 -0.001950 / -5.153700 1.857700 3.162803 / -591.766151 305.798185 542.507585
-0.011575 -0.011425 -0.001950 / -5.165275 1.846275 3.160853 / -596.937213 307.638747 545.667463
-0.011575 -0.011425 -0.001950 / -5.176850 1.834850 3.158903 / -602.119850 309.467884 548.825391
-0.011575 -0.011425 -0.001950 / -5.188425 1.823425 3.156953 / -607.314062 311.285596 551.981369
-0.011575 -0.011425 -0.001950 / -5.200000 1.812000 3.155003 / -612.519849 313.091884 555.135397
-0.004750 0.020800 -0.012425 / -5.204750 1.832800 3.142578 / -617.726974 314.935084 558.271763
-0.004750 0.020800 -0.012425 / -5.209500 1.853600 3.130153 / -622.938848 316.799083 561.395704
-0.004750 0.020800 -0.012425 / -5.214250 1.874400 3.117728 / -628.155473 318.683883 564.507219
-0.004750 0.020800 -0.012425 / -5.219000 1.895200 3.105303 / -633.376847 320.589483 567.606310
-0.004750 0.020800 -0.012425 / -5.223750 1.916000 3.092878 / -638.602972 322.515883 570.692976
-0.004750 0.020800 -0.012425 / -5.228500 1.936800 3.080453 / -643.833846 324.463082 573.767217
-0.004750 0.020800 -0.012425 / -5.233250 1.957600 3.068028 / -649.069471 326.431082 576.829032
-0.004750 0.020800 -0.012425 / -5.237999 1.978400 3.055603 / -654.309845 328.419882 579.878423
-0.004750 0.020800 -0.012425 / -5.242749 1.999200 3.043178 / -659.554970 330.429481 582.915389
-0.004750 0.020800 -0.012425 / -5.247499 2.020000 3.030753 / -664.804844 332.459881 585.939929
-0.004750 0.020800 -0.012425 / -5.252249 2.040800 3.018328 / -670.059469 334.511081 588.952045
-0.004750 0.020800 -0.012425 / -5.256999 2.061600 3.005903 / -675.318843 336.583080 591.951736
-0.004750 0.020800 -0.012425 / -5.261749 2.082400 2.993478 / -680.582968 338.675880 594.939001
-0.004750 0.020800 -0.012425 / -5.266499 2.103200 2.981053 / -685.851842 340.789480 597.913842
-0.004750 0.020800 -0.012425 / -5.271249 2.124000 2.968628 / -691.125467 342.923879 600.876258
-0.004750 0.020800 -0.012425 / -5.275999 2.144800 2.956203 / -696.403841 345.079079 603.826249
-0.004750 0.020800 -0.012425 / -5.280749 2.165600 2.943778 / -701.686966 347.255078 606.763814
-0.004750 0.020800 -0.012425 / -5.285499 2.186400 2.931353 / -706.974840 349.451878 609.688955
-0.004750 0.020800 -0.012425 / -5.290249 2.207200 2.918928 / -712.267465 351.669477 612.601671
-0.004750 0.020800 -0.012425 / -5.294999 2.227999 2.906503 / -717.564839 353.907877 615.501962
-0.004750 0.020800 -0.012425 / -5.299749 2.248799 2.894078 / -722.866964 356.167076 618.389827
-0.004750 0.020800 -0.012425 / -5.304499 2.269599 2.881653 / -728.173838 358.447076 621.265268
-0.004750 0.020800 -0.012425 / -5.309249 2.290399 2.869228 / -733.485463 360.747875 624.128284
-0.004750 0.020800 -0.012425 / -5.313999 2.311199 2.856803 / -738.801837 363.069474 626.978875
-0.004750 0.020800 -0.012425 / -5.318749 2.331999 2.844378 / -744.122961 365.411874 629.817040
-0.004750 0.020800 -0.012425 / -5.323499 2.352799 2.831953 / -749.448836 367.775073 632.642781
-0.004750 0.020800 -0.012425 / -5.328249 2.373599 2.819528 / -754.779460 370.159073 635.456097
-0.004750 0.020800 -0.012425 / -5.332999 2.394399 2.807103 / -760.114835 372.563872 638.256987
-0.004750 0.020800 -0.012425 / -5.337749 2.415199 2.794678 / -765.454959 374.989471 641.045453
-0.004750 0.020800 -0.012425 / -5.342499 2.435999 2.782253 / -770.799834 377.435871 643.821494
-0.004750 0.020800 -0.012425 / -5.347249 2.456799 2.769828 / -776.149458 379.903070 646.585110
-0.004750 0.020800 -0.012425 / -5.351999 2.477599 2.757403 / -781.503833 382.391069 649.336300
-0.004750 0.020800 -0.012425 / -5.356749 2.498399 2.744978 / -786.862957 384.899868 652.075066
-0.004750 0.020800 -0.012425 / -5.361499 2.519199 2.732553 / -792.226832 387.429468 654.801407
-0.004750 0.020800 -0.012425 / -5.366249 2.539999 2.720128 / -797.595456 389.979867 657.515323
-0.004750 0.020800 -0.012425 / -5.370999 2.560799 2.707703 / -802.968831 392.551066 660.216814
-0.004750 0.020800 -0.012425 / -5.375749 2.581599 2.695278 / -808.346955 395.143065 662.905879
-0.004750 0.020800 -0.012425 / -5.380499 2.602399 2.682853 / -813.729829 397.755865 665.582520
-0.004750 0.020800 -0.012425 / -5.385249 2.623199 2.670428 / -819.117454 400.389464 668.246736
-0.004750 0.020800 -0.012425 / -5.389999 2.643999 2.658003 / -824.509828 403.043863 670.898527
0.009575 0.021175 -0.015800 / -5.380424 2.665174 2.642203 / -829.885465 405.719625 673.532830
0.009575 0.021175 -0.015800 / -5.370849 2.686349 2.626403 / -835.251527 408.416561 676.151333
0.009575 0.021175 -0.015800 / -5.361274 2.707524 2.610603 / -840.608014 411.134673 678.754036
0.009575 0.021175 -0.015800 / -5.351699 2.728699 2.594803 / -845.954926 413.873959 681.340939
0.009575 0.021175 -0.015800 / -5.342124 2.749874 2.579003 / -851.292263 416.634421 683.912043
0.009575 0.021175 -0.015800 / -5.332549 2.771049 2.563203 / -856.620025 419.416058 686.467346
0.009575 0.021175 -0.015800 / -5.322974 2.792224 2.547403 / -861.938211 422.218869 689.006849
0.009575 0.021175 -0.015800 / -5.313399 2.813399 2.531603 / -867.246823 425.042856 691.530552
0.009575 0.021175 -0.015800 / -5.303824 2.834574 2.515803 / -872.545860 427.888018 694.038455
0.009575 0.021175 -0.015800 / -5.294249 2.855749 2.500003 / -877.835321 430.754354 696.530558
0.009575 0.021175 -0.015800 / -5.284674 2.876924 2.484203 / -883.115208 433.641866 699.006861
0.009575 0.021175 -0.015800 / -5.275099 2.898099 2.468403 / -888.385520 436.550553 701.467364
0.009575 0.021175 -0.015800 / -5.265524 2.919274 2.452603 / -893.646256 439.480414 703.912067
0.009575 0.021175 -0.015800 / -5.255949 2.940449 2.436803 / -898.897418 442.431451 706.340970
0.009575 0.021175 -0.015800 / -5.246374 2.961624 2.421003 / -904.139005 445.403662 708.754073
0.009575 0.021175 -0.015800 / -5.236799 2.982799 2.405203 / -909.371016 448.397049 711.151376
0.009575 0.021175 -0.015800 / -5.227224 3.003974 2.389403 / -914.593453 451.411611 713.532879
0.009575 0.021175 -0.015800 / -5.217649 3.025149 2.373603 / -919.806314 454.447347 715.898582
0.009575 0.021175 -0.015800 / -5.208074 3.046324 2.357803 / -925.009601 457.504259 718.248484
0.009575 0.021175 -0.015800 / -5.198499 3.067499 2.342003 / -930.203312 460.582345 720.582587
0.009575 0.021175 -0.015800 / -5.188924 3.088674 2.326203 / -935.387448 463.681607 722.900890
0.009575 0.021175 -0.015800 / -5.179349 3.109849 2.310403 / -940.562010 466.802044 725.203393
0.009575 0.021175 -0.015800 / -5.169774 3.131024 2.294603 / -945.726996 469.943655 727.490096
0.009575 0.021175 -0.015800 / -5.160199 3.152199 2.278803 / -950.882408 473.106442 729.760998
0.009575 0.021175 -0.015800 / -5.150624 3.173374 2.263003 / -956.028244 476.290403 732.016101
0.009575 0.021175 -0.015800 / -5.141049 3.194549 2.247203 / -961.164505 479.495540 734.255404
0.009575 0.021175 -0.015800 / -5.131474 3.215724 2.231403 / -966.291192 482.721852 736.478906
0.009575 0.021175 -0.015800 / -5.121899 3.236899 2.215603 / -971.408303 485.969338 738.686609
0.009575 0.021175 -0.015800 / -5.112324 3.258074 2.199803 / -976.515839 489.238000 740.878512
0.009575 0.021175 -0.015800 / -5.102749 3.279249 2.184003 / -981.613800 492.527836 743.054614
0.009575 0.021175 -0.015800 / -5.093174 3.300424 2.168203 / -986.702186 495.838848 745.214917
0.009575 0.021175 -0.015800 / -5.083599 3.321599 2.152403 / -991.780998 499.171034 747.359420
0.009575 0.021175 -0.015800 / -5.074024 3.342774 2.136603 / -996.850234 502.524396 749.488122
0.009575 0.021175 -0.015800 / -5.064449 3.363949 2.120803 / -1001.909895 505.898933 751.601025
0.009575 0.021175 -0.015800 / -5.054874 3.385124 2.105003 / -1006.959981 509.294644 753.698127
0.009575 0.021175 -0.015800 / -5.045299 3.406299 2.089202 / -1012.000492 512.711531 755.779430
0.009575 0.021175 -0.015800 / -5.035724 3.427474 2.073402 / -1017.031428 516.149592 757.844932
0.009575 0.021175 -0.015800 / -5.026149 3.448649 2.057602 / -1022.052789 519.608829 759.894634
0.009575 0.021175 -0.015800 / -5.016574 3.469824 2.041802 / -1027.064575 523.089240 761.928537
0.009575 0.021175 -0.015800 / -5.006998 3.490999 2.026002 / -1032.066786 526.590827 763.946639
-0.000500 0.035200 0.001050 / -5.007498 3.526199 2.027052 / -1037.074534 530.134626 765.974217
-0.000500 0.035200 0.001050 / -5.007998 3.561399 2.028102 / -1042.082783 533.713625 768.002844
-0.000500 0.035200 0.001050 / -5.008499 3.596599 2.029152 / -1047.091531 537.327824 770.032522
-0.000500 0.035200 0.001050 / -5.008999 3.631799 2.030202 / -1052.100780 540.977223 772.063249
-0.000500 0.035200 0.001050 / -5.009499 3.666999 2.031252 / -1057.110529 544.661822 774.095027
-0.000500 0.035200 0.001050 / -5.009999 3.702199 2.032302 / -1062.120777 548.381621 776.127854
-0.000500 0.035200 0.001050 / -5.010499 3.737399 2.033352 / -1067.131526 552.136620 778.161731
-0.000500 0.035200 0.001050 / -5.010999 3.772599 2.034402 / -1072.142774 555.926819 780.196659
-0.000500 0.035200 0.001050 / -5.011499 3.807799 2.035452 / -1077.154523 559.752218 782.232636
-0.000500 0.035200 0.001050 / -5.011999 3.842999 2.036503 / -1082.166771 563.612817 784.269664
-0.000500 0.035200 0.001050 / -5.012499 3.878199 2.037553 / -1087.179520 567.508616 786.307742
-0.000500 0.035200 0.001050 / -5.012999 3.913399 2.038603 / -1092.192768 571.439615 788.346869
-0.000500 0.035200 0.001050 / -5.013499 3.948599 2.039653 / -1097.206517 575.405814 790.387047
-0.000500 0.035200 0.001050 / -5.013999 3.983799 2.040703 / -1102.220766 579.407213 792.428274
-0.000500 0.035200 0.001050 / -5.014499 4.018999 2.041753 / -1107.235514 583.443812 794.470552
-0.000500 0.035200 0.001050 / -5.014999 4.054199 2.042803 / -1112.250763 587.515611 796.513879
-0.000500 0.035200 0.001050 / -5.015499 4.089399 2.043853 / -1117.266512 591.622610 798.558257
-0.000500 0.035200 0.001050 / -5.015999 4.124599 2.044903 / -1122.282760 595.764809 800.603684
-0.000500 0.035200 0.001050 / -5.016499 4.159799 2.045953 / -1127.299509 599.942208 802.650162
-0.000500 0.035200 0.001050 / -5.016999 4.194999 2.047003 / -1132.316757 604.154807 804.697690
-0.000500 0.035200 0.001050 / -5.017499 4.230199 2.048053 / -1137.334506 608.402606 806.746267
-0.000500 0.035200 0.001050 / -5.017999 4.265399 2.049103 / -1142.352755 612.685605 808.795895
-0.000500 0.035200 0.001050 / -5.018499 4.300599 2.050153 / -1147.371503 617.003804 810.846573
-0.000500 0.035200 0.001050 / -5.018999 4.335799 2.051203 / -1152.390752 621.357203 812.898300
-0.000500 0.035200 0.001050 / -5.019499 4.370999 2.052253 / -1157.410501 625.745802 814.951078
-0.000500 0.035200 0.001050 / -5.019999 4.406199 2.053303 / -1162.430750 630.169601 817.004906
-0.000500 0.035200 0.001050 / -5.020499 4.441399 2.054353 / -1167.451498 634.628599 819.059783
-0.000500 0.035200 0.001050 / -5.020999 4.476599 2.055403 / -1172.472747 639.122798 821.115711
-0.000500 0.035200 0.001050 / -5.021499 4.511799 2.056453 / -1177.494496 643.652197 823.172689
-0.000500 0.035200 0.001050 / -5.021999 4.546999 2.057503 / -1182.516744 648.216796 825.230716
-0.000500 0.035200 0.001050 / -5.022499 4.582199 2.058553 / -1187.539493 652.816595 827.289794
-0.000500 0.035200 0.001050 / -5.022999 4.617399 2.059603 / -1192.562742 657.451594 829.349922
-0.000500 0.035200 0.001050 / -5.023499 4.652599 2.060653 / -1197.586491 662.121793 831.411100
-0.000500 0.035200 0.001050 / -5.023999 4.687799 2.061703 / -1202.610739 666.827192 833.473327
-0.000500 0.035200 0.001050 / -5.024499 4.722999 2.062753 / -1207.635488 671.567791 835.536605
-0.000500 0.035200 0.001050 / -5.024999 4.758199 2.063803 / -1212.660737 676.343590 837.600933
-0.000500 0.035200 0.001050 / -5.025499 4.793399 2.064853 / -1217.686486 681.154589 839.666311
-0.000500 0.035200 0.001050 / -5.025999 4.828599 2.065903 / -1222.712735 686.000787 841.732739
-0.000500 0.035200 0.001050 / -5.026499 4.863799 2.066953 / -1227.739483 690.882186 843.800216
-0.000500 0.035200 0.001050 / -5.026999 4.898999 2.068003 / -1232.766732 695.798785 845.868744
0.004525 0.043675 0.005850 / -5.022474 4.942674 2.073853 / -1237.786944 700.763297 847.945522
0.004525 0.043675 0.005850 / -5.017949 4.986349 2.079703 / -1242.802630 705.771483 850.028150
0.004525 0.043675 0.005850 / -5.013424 5.030024 2.085553 / -1247.813791 710.823344 852.116628
0.004525 0.043675 0.005850 / -5.008899 5.073699 2.091403 / -1252.820427 715.918881 854.210956
0.004525 0.043675 0.005850 / -5.004374 5.117374 2.097253 / -1257.822539 721.058092 856.311134
0.004525 0.043675 0.005850 / -4.999849 5.161049 2.103103 / -1262.820125 726.240979 858.417162
0.004525 0.043675 0.005850 / -4.995324 5.204724 2.108953 / -1267.813186 731.467540 860.529040
0.004525 0.043675 0.005850 / -4.990799 5.248399 2.114803 / -1272.801723 736.737777 862.646767
0.004525 0.043675 0.005850 / -4.986274 5.292074 2.120653 / -1277.785734 742.051688 864.770345
0.004525 0.043675 0.005850 / -4.981749 5.335749 2.126503 / -1282.765220 747.409274 866.899773
0.004525 0.043675 0.005850 / -4.977224 5.379424 2.132353 / -1287.740181 752.810536 869.035051
0.004525 0.043675 0.005850 / -4.972699 5.423099 2.138203 / -1292.710618 758.255472 871.176180
0.004525 0.043675 0.005850 / -4.968174 5.466774 2.144053 / -1297.676529 763.744084 873.323158
0.004525 0.043675 0.005850 / -4.963649 5.510449 2.149903 / -1302.637915 769.276370 875.475986
0.004525 0.043675 0.005850 / -4.959124 5.554124 2.155753 / -1307.594776 774.852332 877.634664
0.004525 0.043675 0.005850 / -4.954599 5.597799 2.161603 / -1312.547113 780.471968 879.799192
0.004525 0.043675 0.005850 / -4.950074 5.641474 2.167453 / -1317.494924 786.135280 881.969570
0.004525 0.043675 0.005850 / -4.945549 5.685149 2.173303 / -1322.438210 791.842266 884.145798
0.004525 0.043675 0.005850 / -4.941024 5.728824 2.179153 / -1327.376971 797.592928 886.327876
0.004525 0.043675 0.005850 / -4.936499 5.772499 2.185003 / -1332.311207 803.387264 888.515804
0.004525 0.043675 0.005850 / -4.931974 5.816174 2.190853 / -1337.240919 809.225276 890.709583
0.004525 0.043675 0.005850 / -4.927449 5.859849 2.196703 / -1342.166105 815.106962 892.909211
0.004525 0.043675 0.005850 / -4.922924 5.903524 2.202553 / -1347.086766 821.032324 895.114689
0.004525 0.043675 0.005850 / -4.918399 5.947199 2.208403 / -1352.002902 827.001360 897.326017
0.004525 0.043675 0.005850 / -4.913874 5.990874 2.214253 / -1356.914513 833.014072 899.543196
0.004525 0.043675 0.005850 / -4.909349 6.034549 2.220103 / -1361.821599 839.070458 901.766224
0.004525 0.043675 0.005850 / -4.904824 6.078224 2.225953 / -1366.724161 845.170520 903.995102
0.004525 0.043675 0.005850 / -4.900299 6.121899 2.231803 / -1371.622197 851.314256 906.229830
0.004525 0.043675 0.005850 / -4.895774 6.165574 2.237653 / -1376.515708 857.501668 908.470409
0.004525 0.043675 0.005850 / -4.891249 6.209249 2.243503 / -1381.404694 863.732754 910.716837
0.004525 0.043675 0.005850 / -4.886724 6.252924 2.249353 / -1386.289155 870.007516 912.969115
0.004525 0.043675 0.005850 / -4.882199 6.296599 2.255203 / -1391.169091 876.325953 915.227244
0.004525 0.043675 0.005850 / -4.877674 6.340274 2.261053 / -1396.044502 882.688064 917.491222
0.004525 0.043675 0.005850 / -4.873149 6.383949 2.266903 / -1400.915389 889.093851 919.761051
0.004525 0.043675 0.005850 / -4.868624 6.427624 2.272753 / -1405.781750 895.543312 922.036729
0.004525 0.043675 0.005850 / -4.864099 6.471299 2.278603 / -1410.643586 902.036449 924.318257
0.004525 0.043675 0.005850 / -4.859574 6.514974 2.284453 / -1415.500897 908.573260 926.605636
0.004525 0.043675 0.005850 / -4.855049 6.558649 2.290303 / -1420.353683 915.153747 928.898864
0.004525 0.043675 0.005850 / -4.850524 6.602324 2.296153 / -1425.201944 921.777909 931.197943
0.004525 0.043675 0.005850 / -4.845999 6.645999 2.302004 / -1430.045680 928.445745 933.502871
0.011225 0.013725 -0.016500 / -4.834774 6.659724 2.285504 / -1434.874841 935.112332 935.780125
0.011225 0.013725 -0.016500 / -4.823549 6.673449 2.269004 / -1439.692777 941.792644 938.040878
0.011225 0.013725 -0.016500 / -4.812324 6.687174 2.252504 / -1444.499489 948.486680 940.285132
0.011225 0.013725 -0.016500 / -4.801099 6.700899 2.236004 / -1449.294975 955.194442 942.512885
0.011225 0.013725 -0.016500 / -4.789874 6.714624 2.219504 / -1454.079236 961.915928 944.724139
0.011225 0.013725 -0.016500 / -4.778649 6.728349 2.203004 / -1458.852272 968.651140 946.918893
0.011225 0.013725 -0.016500 / -4.767424 6.742074 2.186504 / -1463.614084 975.400077 949.097146
0.011225 0.013725 -0.016500 / -4.756199 6.755799 2.170004 / -1468.364670 982.162739 951.258900
0.011225 0.013725 -0.016500 / -4.744974 6.769524 2.153504 / -1473.104031 988.939125 953.404153
0.011225 0.013725 -0.016500 / -4.733749 6.783249 2.137004 / -1477.832168 995.729237 955.532907
0.011225 0.013725 -0.016500 / -4.722524 6.796974 2.120504 / -1482.549079 1002.533074 957.645160
0.011225 0.013725 -0.016500 / -4.711299 6.810699 2.104004 / -1487.254766 1009.350636 959.740914
0.011225 0.013725 -0.016500 / -4.700074 6.824424 2.087504 / -1491.949227 1016.181922 961.820167
0.011225 0.013725 -0.016500 / -4.688849 6.838149 2.071004 / -1496.632464 1023.026934 963.882921
0.011225 0.013725 -0.016500 / -4.677624 6.851874 2.054504 / -1501.304475 1029.885671 965.929174
0.011225 0.013725 -0.016500 / -4.666399 6.865599 2.038004 / -1505.965262 1036.758133 967.958928
0.011225 0.013725 -0.016500 / -4.655174 6.879324 2.021504 / -1510.614823 1043.644320 969.972182
0.011225 0.013725 -0.016500 / -4.643949 6.893049 2.005004 / -1515.253160 1050.544231 971.968935
0.011225 0.013725 -0.016500 / -4.632724 6.906774 1.988504 / -1519.880272 1057.457868 973.949189
0.011225 0.013725 -0.016500 / -4.621499 6.920499 1.972004 / -1524.496158 1064.385230 975.912942
0.011225 0.013725 -0.016500 / -4.610274 6.934224 1.955504 / -1529.100820 1071.326317 977.860196
0.011225 0.013725 -0.016500 / -4.599049 6.947949 1.939004 / -1533.694257 1078.281129 979.790949
0.011225 0.013725 -0.016500 / -4.587824 6.961674 1.922504 / -1538.276469 1085.249666 981.705203
0.011225 0.013725 -0.016500 / -4.576599 6.975399 1.906004 / -1542.847455 1092.231928 983.602957
0.011225 0.013725 -0.016500 / -4.565374 6.989124 1.889504 / -1547.407217 1099.227915 985.484210
0.011225 0.013725 -0.016500 / -4.554149 7.002849 1.873004 / -1551.955754 1106.237627 987.348964
0.011225 0.013725 -0.016500 / -4.542924 7.016574 1.856504 / -1556.493066 1113.261063 989.197217
0.011225 0.013725 -0.016500 / -4.531699 7.030299 1.840004 / -1561.019153 1120.298225 991.028971
0.011225 0.013725 -0.016500 / -4.520474 7.044024 1.823504 / -1565.534015 1127.349112 992.844225
0.011225 0.013725 -0.016500 / -4.509249 7.057749 1.807004 / -1570.037652 1134.413724 994.642978
0.011225 0.013725 -0.016500 / -4.498025 7.071474 1.790504 / -1574.530064 1141.492061 996.425232
0.011225 0.013725 -0.016500 / -4.486800 7.085200 1.774004 / -1579.011251 1148.584123 998.190986
0.011225 0.013725 -0.016500 / -4.475575 7.098925 1.757504 / -1583.481213 1155.689910 999.940239
0.011225 0.013725 -0.016500 / -4.464350 7.112650 1.741004 / -1587.939950 1162.809422 1001.672993
0.011225 0.013725 -0.016500 / -4.453125 7.126375 1.724504 / -1592.387462 1169.942660 1003.389246
0.011225 0.013725 -0.016500 / -4.441900 7.140100 1.708004 / -1596.823750 1177.089622 1005.089000
0.011225 0.013725 -0.016500 / -4.430675 7.153825 1.691504 / -1601.248812 1184.250309 1006.772254
0.011225 0.013725 -0.016500 / -4.419450 7.167550 1.675004 / -1605.662649 1191.424721 1008.439007
0.011225 0.013725 -0.016500 / -4.408225 7.181275 1.658504 / -1610.065261 1198.612858 1010.089261
0.011225 0.013725 -0.016500 / -4.397000 7.195000 1.642004 / -1614.456649 1205.814720 1011.723015
-0.008925 0.007000 0.019900 / -4.405925 7.202000 1.661904 / -1618.867036 1213.020220 1013.394868
-0.008925 0.007000 0.019900 / -4.414850 7.209000 1.681804 / -1623.286348 1220.232719 1015.086622
-0.008925 0.007000 0.019900 / -4.423775 7.216000 1.701704 / -1627.714585 1227.452219 1016.798275
-0.008925 0.007000 0.019900 / -4.432700 7.223000 1.721604 / -1632.151748 1234.678718 1018.529829
-0.008925 0.007000 0.019900 / -4.441625 7.230000 1.741504 / -1636.597835 1241.912218 1020.281283
-0.008925 0.007000 0.019900 / -4.450550 7.237000 1.761404 / -1641.052848 1249.152718 1022.052636
-0.008925 0.007000 0.019900 / -4.459475 7.244000 1.781303 / -1645.516785 1256.400217 1023.843890
-0.008925 0.007000 0.019900 / -4.468400 7.251000 1.801203 / -1649.989647 1263.654717 1025.655043
-0.008925 0.007000 0.019900 / -4.477325 7.258000 1.821103 / -1654.471435 1270.916216 1027.486096
-0.008925 0.007000 0.019900 / -4.486250 7.265000 1.841003 / -1658.962147 1278.184716 1029.337050
-0.008925 0.007000 0.019900 / -4.495175 7.272000 1.860903 / -1663.461785 1285.460216 1031.207903
-0.008925 0.007000 0.019900 / -4.504100 7.279000 1.880803 / -1667.970347 1292.742715 1033.098657
-0.008925 0.007000 0.019900 / -4.513025 7.286000 1.900703 / -1672.487834 1300.032215 1035.009310
-0.008925 0.007000 0.019900 / -4.521950 7.293000 1.920603 / -1677.014247 1307.328714 1036.939863
-0.008925 0.007000 0.019900 / -4.530875 7.300000 1.940503 / -1681.549584 1314.632214 1038.890316
-0.008925 0.007000 0.019900 / -4.539800 7.307000 1.960403 / -1686.093847 1321.942714 1040.860670
-0.008925 0.007000 0.019900 / -4.548725 7.314000 1.980303 / -1690.647034 1329.260213 1042.850923
-0.008925 0.007000 0.019900 / -4.557650 7.321000 2.000203 / -1695.209147 1336.584713 1044.861076
-0.008925 0.007000 0.019900 / -4.566575 7.328000 2.020103 / -1699.780184 1343.916212 1046.891129
-0.008925 0.007000 0.019900 / -4.575500 7.335000 2.040003 / -1704.360147 1351.254712 1048.941082
-0.008925 0.007000 0.019900 / -4.584425 7.342000 2.059903 / -1708.949035 1358.600211 1051.010936
-0.008925 0.007000 0.019900 / -4.593350 7.349000 2.079803 / -1713.546847 1365.952711 1053.100689
-0.008925 0.007000 0.019900 / -4.602275 7.356000 2.099703 / -1718.153585 1373.312211 1055.210342
-0.008925 0.007000 0.019900 / -4.611200 7.363000 2.119603 / -1722.769247 1380.678710 1057.339895
-0.008925 0.007000 0.019900 / -4.620125 7.370000 2.139503 / -1727.393835 1388.052210 1059.489348
-0.008925 0.007000 0.019900 / -4.629050 7.377000 2.159403 / -1732.027348 1395.432709 1061.658701
-0.008925 0.007000 0.019900 / -4.637975 7.384000 2.179303 / -1736.669785 1402.820209 1063.847954
-0.008925 0.007000 0.019900 / -4.646900 7.391000 2.199203 / -1741.321148 1410.214709 1066.057107
-0.008925 0.007000 0.019900 / -4.655825 7.398000 2.219103 / -1745.981435 1417.616208 1068.286160
-0.008925 0.007000 0.019900 / -4.664750 7.405000 2.239003 / -1750.650648 1425.024708 1070.535113
-0.008925 0.007000 0.019900 / -4.673675 7.412000 2.258903 / -1755.328786 1432.440207 1072.803966
-0.008925 0.007000 0.019900 / -4.682600 7.419000 2.278803 / -1760.015849 1439.862707 1075.092718
-0.008925 0.007000 0.019900 / -4.691525 7.426000 2.298703 / -1764.711836 1447.292207 1077.401371
-0.008925 0.007000 0.019900 / -4.700450 7.433000 2.318603 / -1769.416749 1454.728706 1079.729924
-0.008925 0.007000 0.019900 / -4.709375 7.440000 2.338503 / -1774.130587 1462.172206 1082.078377
-0.008925 0.007000 0.019900 / -4.718300 7.447000 2.358403 / -1778.853350 1469.622705 1084.446730
-0.008925 0.007000 0.019900 / -4.727225 7.454000 2.378303 / -1783.585037 1477.080205 1086.834982
-0.008925 0.007000 0.019900 / -4.736150 7.461000 2.398203 / -1788.325650 1484.544704 1089.243135
-0.008925 0.007000 0.019900 / -4.745075 7.468000 2.418103 / -1793.075188 1492.016204 1091.671188
-0.008925 0.007000 0.019900 / -4.754000 7.475000 2.438003 / -1797.833651 1499.494704 1094.119140
-0.012125 0.024350 0.031300 / -4.766125 7.499350 2.469303 / -1802.605838 1507.006228 1096.604093
-0.012125 0.024350 0.031300 / -4.778250 7.523700 2.500603 / -1807.390151 1514.542103 1099.120346
-0.012125 0.024350 0.031300 / -4.790375 7.548050 2.531903 / -1812.186589 1522.102327 1101.667899
-0.012125 0.024350 0.031300 / -4.802500 7.572400 2.563203 / -1816.995151 1529.686902 1104.246751
-0.012125 0.024350 0.031300 / -4.814625 7.596750 2.594503 / -1821.815839 1537.295827 1106.856904
-0.012125 0.024350 0.031300 / -4.826750 7.621100 2.625803 / -1826.648652 1544.929101 1109.498357
-0.012125 0.024350 0.031300 / -4.838875 7.645450 2.657103 / -1831.493589 1552.586726 1112.171110
-0.012125 0.024350 0.031300 / -4.851000 7.669800 2.688403 / -1836.350652 1560.268700 1114.875163
-0.012125 0.024350 0.031300 / -4.863125 7.694150 2.719703 / -1841.219839 1567.975025 1117.610516
-0.012125 0.024350 0.031300 / -4.875250 7.718500 2.751003 / -1846.101152 1575.705700 1120.377169
-0.012125 0.024350 0.031300 / -4.887375 7.742850 2.782303 / -1850.994589 1583.460724 1123.175121
-0.012125 0.024350 0.031300 / -4.899500 7.767200 2.813603 / -1855.900151 1591.240099 1126.004374
-0.012125 0.024350 0.031300 / -4.911625 7.791550 2.844903 / -1860.817839 1599.043824 1128.864927
-0.012125 0.024350 0.031300 / -4.923750 7.815900 2.876203 / -1865.747651 1606.871898 1131.756780
-0.012125 0.024350 0.031300 / -4.935875 7.840250 2.907503 / -1870.689588 1614.724323 1134.679933
-0.012125 0.024350 0.031300 / -4.948000 7.864600 2.938803 / -1875.643650 1622.601098 1137.634387
-0.012125 0.024350 0.031300 / -4.960125 7.888950 2.970103 / -1880.609837 1630.502222 1140.620140
-0.012125 0.024350 0.031300 / -4.972250 7.913300 3.001403 / -1885.588150 1638.427697 1143.637193
-0.012125 0.024350 0.031300 / -4.984375 7.937650 3.032703 / -1890.578587 1646.377522 1146.685546
-0.012125 0.024350 0.031300 / -4.996500 7.962000 3.064003 / -1895.581149 1654.351696 1149.765199
-0.012125 0.024350 0.031300 / -5.008625 7.986350 3.095303 / -1900.595836 1662.350221 1152.876152
-0.012125 0.024350 0.031300 / -5.020749 8.010700 3.126603 / -1905.622648 1670.373096 1156.018405
-0.012125 0.024350 0.031300 / -5.032874 8.035050 3.157903 / -1910.661585 1678.420321 1159.191959
-0.012125 0.024350 0.031300 / -5.044999 8.059400 3.189203 / -1915.712647 1686.491895 1162.396812
-0.012125 0.024350 0.031300 / -5.057124 8.083750 3.220503 / -1920.775833 1694.587820 1165.632965
-0.012125 0.024350 0.031300 / -5.069249 8.108100 3.251803 / -1925.851145 1702.708095 1168.900418
-0.012125 0.024350 0.031300 / -5.081374 8.132450 3.283103 / -1930.938582 1710.852720 1172.199172
-0.012125 0.024350 0.031300 / -5.093499 8.156800 3.314403 / -1936.038144 1719.021694 1175.529225
-0.012125 0.024350 0.031300 / -5.105624 8.181150 3.345703 / -1941.149831 1727.215019 1178.890578
-0.012125 0.024350 0.031300 / -5.117749 8.205500 3.377003 / -1946.273642 1735.432694 1182.283232
-0.012125 0.024350 0.031300 / -5.129874 8.229850 3.408303 / -1951.409579 1743.674719 1185.707185
-0.012125 0.024350 0.031300 / -5.141999 8.254200 3.439603 / -1956.557640 1751.941093 1189.162439
-0.012125 0.024350 0.031300 / -5.154124 8.278550 3.470903 / -1961.717827 1760.231818 1192.648992
-0.012125 0.024350 0.031300 / -5.166249 8.302900 3.502203 / -1966.890139 1768.546893 1196.166846
-0.012125 0.024350 0.031300 / -5.178374 8.327250 3.533503 / -1972.074575 1776.886318 1199.715999
-0.012125 0.024350 0.031300 / -5.190499 8.351600 3.564804 / -1977.271136 1785.250093 1203.296453
-0.012125 0.024350 0.031300 / -5.202624 8.375950 3.596104 / -1982.479823 1793.638217 1206.908206
-0.012125 0.024350 0.031300 / -5.214749 8.400300 3.627404 / -1987.700634 1802.050692 1210.551260
-0.012125 0.024350 0.031300 / -5.226874 8.424650 3.658704 / -1992.933571 1810.487517 1214.225613
-0.012125 0.024350 0.031300 / -5.238999 8.449000 3.690004 / -1998.178632 1818.948692 1217.931267
0.008800 0.014450 -0.027925 / -5.230199 8.463450 3.662079 / -2003.404431 1827.419367 1221.579383
0.008800 0.014450 -0.027925 / -5.221399 8.477900 3.634154 / -2008.621430 1835.904491 1225.199574
0.008800 0.014450 -0.027925 / -5.212599 8.492350 3.606229 / -2013.829628 1844.404066 1228.791840
0.008800 0.014450 -0.027925 / -5.203799 8.506800 3.578304 / -2019.029027 1852.918091 1232.356181
0.008800 0.014450 -0.027925 / -5.194999 8.521250 3.550379 / -2024.219626 1861.446566 1235.892598
0.008800 0.014450 -0.027925 / -5.186199 8.535700 3.522454 / -2029.401425 1869.989491 1239.401089
0.008800 0.014450 -0.027925 / -5.177399 8.550150 3.494529 / -2034.574424 1878.546866 1242.881655
0.008800 0.014450 -0.027925 / -5.168599 8.564600 3.466604 / -2039.738622 1887.118691 1246.334296
0.008800 0.014450 -0.027925 / -5.159799 8.579050 3.438679 / -2044.894021 1895.704965 1249.759013
0.008800 0.014450 -0.027925 / -5.150999 8.593500 3.410754 / -2050.040620 1904.305690 1253.155804
0.008800 0.014450 -0.027925 / -5.142199 8.607950 3.382829 / -2055.178419 1912.920865 1256.524670
0.008800 0.014450 -0.027925 / -5.133399 8.622400 3.354904 / -2060.307417 1921.550490 1259.865611
0.008800 0.014450 -0.027925 / -5.124599 8.636850 3.326979 / -2065.427616 1930.194565 1263.178628
0.008800 0.014450 -0.027925 / -5.115799 8.651300 3.299054 / -2070.539015 1938.853090 1266.463719
0.008800 0.014450 -0.027925 / -5.106999 8.665750 3.271129 / -2075.641613 1947.526065 1269.720885
0.008800 0.014450 -0.027925 / -5.098199 8.680200 3.243204 / -2080.735412 1956.213490 1272.950127
0.008800 0.014450 -0.027925 / -5.089399 8.694650 3.215279 / -2085.820411 1964.915365 1276.151443
0.008800 0.014450 -0.027925 / -5.080599 8.709100 3.187354 / -2090.896610 1973.631690 1279.324834
0.008800 0.014450 -0.027925 / -5.071799 8.723550 3.159429 / -2095.964008 1982.362465 1282.470301
0.008800 0.014450 -0.027925 / -5.062999 8.738000 3.131504 / -2101.022607 1991.107690 1285.587842
0.008800 0.014450 -0.027925 / -5.054199 8.752450 3.103579 / -2106.072406 1999.867365 1288.677459
0.008800 0.014450 -0.027925 / -5.045399 8.766900 3.075654 / -2111.113404 2008.641490 1291.739150
0.008800 0.014450 -0.027925 / -5.036599 8.781350 3.047729 / -2116.145603 2017.430064 1294.772917
0.008800 0.014450 -0.027925 / -5.027799 8.795800 3.019804 / -2121.169002 2026.233089 1297.778758
0.008800 0.014450 -0.027925 / -5.018999 8.810250 2.991879 / -2126.183600 2035.050564 1300.756675
0.008800 0.014450 -0.027925 / -5.010199 8.824700 2.963954 / -2131.189399 2043.882489 1303.706666
0.008800 0.014450 -0.027925 / -5.001399 8.839150 2.936029 / -2136.186397 2052.728864 1306.628733
0.008800 0.014450 -0.027925 / -4.992599 8.853600 2.908104 / -2141.174596 2061.589689 1309.522874
0.008800 0.014450 -0.027925 / -4.983799 8.868050 2.880179 / -2146.153995 2070.464964 1312.389091
0.008800 0.014450 -0.027925 / -4.974999 8.882500 2.852254 / -2151.124593 2079.354689 1315.227382
0.008800 0.014450 -0.027925 / -4.966199 8.896950 2.824329 / -2156.086392 2088.258864 1318.037749
0.008800 0.014450 -0.027925 / -4.957399 8.911400 2.796404 / -2161.039391 2097.177489 1320.820191
0.008800 0.014450 -0.027925 / -4.948599 8.925850 2.768479 / -2165.983589 2106.110564 1323.574707
0.008800 0.014450 -0.027925 / -4.939799 8.940300 2.740554 / -2170.918988 2115.058090 1326.301299
0.008800 0.014450 -0.027925 / -4.930999 8.954750 2.712629 / -2175.845586 2124.020065 1328.999965
0.008800 0.014450 -0.027925 / -4.922199 8.969200 2.684704 / -2180.763385 2132.996490 1331.670707
0.008800 0.014450 -0.027925 / -4.913399 8.983650 2.656779 / -2185.672383 2141.987365 1334.313524
0.008800 0.014450 -0.027925 / -4.904599 8.998100 2.628854 / -2190.572582 2150.992690 1336.928415
0.008800 0.014450 -0.027925 / -4.895799 9.012550 2.600929 / -2195.463980 2160.012465 1339.515382
0.008800 0.014450 -0.027925 / -4.886999 9.027000 2.573004 / -2200.346579 2169.046690 1342.074424
0.002950 0.001000 0.011500 / -4.884049 9.028000 2.584504 / -2205.229152 2178.075190 1344.664678
0.002950 0.001000 0.011500 / -4.881099 9.029000 2.596004 / -2210.108776 2187.104690 1347.266432
0.002950 0.001000 0.011500 / -4.878149 9.030000 2.607504 / -2214.985450 2196.135190 1349.879687
0.002950 0.001000 0.011500 / -4.875199 9.031000 2.619004 / -2219.859173 2205.166690 1352.504441
0.002950 0.001000 0.011500 / -4.872249 9.032000 2.630504 / -2224.729947 2214.199190 1355.140695
0.002950 0.001000 0.011500 / -4.869299 9.033000 2.642004 / -2229.597770 2223.232690 1357.788449
0.002950 0.001000 0.011500 / -4.866349 9.034000 2.653504 / -2234.462644 2232.267190 1360.447703
0.002950 0.001000 0.011500 / -4.863399 9.035000 2.665004 / -2239.324567 2241.302690 1363.118458
0.002950 0.001000 0.011500 / -4.860449 9.036000 2.676504 / -2244.183541 2250.339190 1365.800712
0.002950 0.001000 0.011500 / -4.857499 9.037000 2.688004 / -2249.039564 2259.376690 1368.494466
0.002950 0.001000 0.011500 / -4.854549 9.038000 2.699504 / -2253.892638 2268.415190 1371.199720
0.002950 0.001000 0.011500 / -4.851599 9.039000 2.711004 / -2258.742762 2277.454690 1373.916475
0.002950 0.001000 0.011500 / -4.848649 9.040000 2.722504 / -2263.589935 2286.495190 1376.644729
0.002950 0.001000 0.011500 / -4.845699 9.041000 2.734004 / -2268.434159 2295.536690 1379.384483
0.002950 0.001000 0.011500 / -4.842749 9.042000 2.745504 / -2273.275432 2304.579190 1382.135737
0.002950 0.001000 0.011500 / -4.839799 9.043000 2.757004 / -2278.113756 2313.622690 1384.898491
0.002950 0.001000 0.011500 / -4.836849 9.044000 2.768504 / -2282.949129 2322.667190 1387.672746
0.002950 0.001000 0.011500 / -4.833899 9.045000 2.780004 / -2287.781553 2331.712690 1390.458500
0.002950 0.001000 0.011500 / -4.830949 9.046000 2.791504 / -2292.611027 2340.759190 1393.255754
0.002950 0.001000 0.011500 / -4.827999 9.047000 2.803004 / -2297.437550 2349.806690 1396.064508
0.002950 0.001000 0.011500 / -4.825049 9.048000 2.814504 / -2302.261124 2358.855190 1398.884763
0.002950 0.001000 0.011500 / -4.822099 9.049000 2.826004 / -2307.081747 2367.904690 1401.716517
0.002950 0.001000 0.011500 / -4.819149 9.050000 2.837504 / -2311.899421 2376.955190 1404.559771
0.002950 0.001000 0.011500 / -4.816199 9.051000 2.849004 / -2316.714144 2386.006690 1407.414525
0.002950 0.001000 0.011500 / -4.813249 9.052000 2.860504 / -2321.525918 2395.059190 1410.280780
0.002950 0.001000 0.011500 / -4.810299 9.053000 2.872004 / -2326.334742 2404.112690 1413.158534
0.002950 0.001000 0.011500 / -4.807349 9.054000 2.883504 / -2331.140615 2413.167190 1416.047788
0.002950 0.001000 0.011500 / -4.804399 9.055000 2.895004 / -2335.943539 2422.222690 1418.948542
0.002950 0.001000 0.011500 / -4.801449 9.056000 2.906504 / -2340.743512 2431.279189 1421.860797
0.002950 0.001000 0.011500 / -4.798499 9.057000 2.918004 / -2345.540536 2440.336689 1424.784551
0.002950 0.001000 0.011500 / -4.795549 9.058000 2.929504 / -2350.334610 2449.395189 1427.719805
0.002950 0.001000 0.011500 / -4.792599 9.059000 2.941004 / -2355.125733 2458.454689 1430.666559
0.002950 0.001000 0.011500 / -4.789649 9.060000 2.952504 / -2359.913907 2467.515189 1433.624814
0.002950 0.001000 0.011500 / -4.786699 9.061000 2.964004 / -2364.699130 2476.576689 1436.594568
0.002950 0.001000 0.011500 / -4.783749 9.062000 2.975504 / -2369.481404 2485.639189 1439.575822
0.002950 0.001000 0.011500 / -4.780799 9.063000 2.987004 / -2374.260728 2494.702689 1442.568576
0.002950 0.001000 0.011500 / -4.777849 9.064000 2.998504 / -2379.037101 2503.767189 1445.572831
0.002950 0.001000 0.011500 / -4.774899 9.065000 3.010004 / -2383.810525 2512.832688 1448.588585
0.002950 0.001000 0.011500 / -4.771949 9.066000 3.021504 / -2388.580999 2521.899188 1451.615839
0.002950 0.001000 0.011500 / -4.768999 9.067000 3.033004 / -2393.348522 2530.966688 1454.654593
-0.006650 0.011150 0.009450 / -4.775649 9.078150 3.042454 / -2398.127496 2540.050413 1457.701773
-0.006650 0.011150 0.009450 / -4.782299 9.089300 3.051904 / -2402.913119 2549.145288 1460.758402
-0.006650 0.011150 0.009450 / -4.788949 9.100450 3.061354 / -2407.705393 2558.251313 1463.824481
-0.006650 0.011150 0.009450 / -4.795599 9.111600 3.070804 / -2412.504317 2567.368487 1466.900011
-0.006650 0.011150 0.009450 / -4.802249 9.122750 3.080254 / -2417.309890 2576.496812 1469.984990
-0.006650 0.011150 0.009450 / -4.808899 9.133900 3.089704 / -2422.122114 2585.636287 1473.079419
-0.006650 0.011150 0.009450 / -4.815549 9.145050 3.099154 / -2426.940988 2594.786912 1476.183299
-0.006650 0.011150 0.009450 / -4.822199 9.156200 3.108604 / -2431.766511 2603.948686 1479.296628
-0.006650 0.011150 0.009450 / -4.828849 9.167350 3.118054 / -2436.598685 2613.121611 1482.419408
-0.006650 0.011150 0.009450 / -4.835499 9.178500 3.127505 / -2441.437509 2622.305686 1485.551637
-0.006650 0.011150 0.009450 / -4.842149 9.189650 3.136955 / -2446.282983 2631.500911 1488.693317
-0.006650 0.011150 0.009450 / -4.848799 9.200800 3.146405 / -2451.135106 2640.707285 1491.844447
-0.006650 0.011150 0.009450 / -4.855449 9.211950 3.155855 / -2455.993880 2649.924810 1495.005026
-0.006650 0.011150 0.009450 / -4.862099 9.223100 3.165305 / -2460.859304 2659.153485 1498.175056
-0.006650 0.011150 0.009450 / -4.868749 9.234250 3.174755 / -2465.731378 2668.393309 1501.354535
-0.006650 0.011150 0.009450 / -4.875399 9.245400 3.184205 / -2470.610101 2677.644284 1504.543465
-0.006650 0.011150 0.009450 / -4.882049 9.256550 3.193655 / -2475.495475 2686.906409 1507.741845
-0.006650 0.011150 0.009450 / -4.888699 9.267700 3.203105 / -2480.387499 2696.179683 1510.949675
-0.006650 0.011150 0.009450 / -4.895349 9.278850 3.212555 / -2485.286173 2705.464108 1514.166954
-0.006650 0.011150 0.009450 / -4.901999 9.290000 3.222005 / -2490.191496 2714.759682 1517.393684
-0.006650 0.011150 0.009450 / -4.908649 9.301150 3.231455 / -2495.103470 2724.066407 1520.629864
-0.006650 0.011150 0.009450 / -4.915299 9.312300 3.240905 / -2500.022094 2733.384282 1523.875494
-0.006650 0.011150 0.009450 / -4.921949 9.323450 3.250355 / -2504.947368 2742.713306 1527.130574
-0.006650 0.011150 0.009450 / -4.928599 9.334600 3.259805 / -2509.879292 2752.053481 1530.395103
-0.006650 0.011150 0.009450 / -4.935249 9.345750 3.269255 / -2514.817866 2761.404805 1533.669083
-0.006650 0.011150 0.009450 / -4.941899 9.356900 3.278705 / -2519.763089 2770.767280 1536.952513
-0.006650 0.011150 0.009450 / -4.948549 9.368050 3.288155 / -2524.714963 2780.140904 1540.245393
-0.006650 0.011150 0.009450 / -4.955199 9.379200 3.297605 / -2529.673487 2789.525679 1543.547723
-0.006650 0.011150 0.009450 / -4.961849 9.390349 3.307055 / -2534.638661 2798.921603 1546.859503
-0.006650 0.011150 0.009450 / -4.968499 9.401499 3.316505 / -2539.610485 2808.328678 1550.180733
-0.006650 0.011150 0.009450 / -4.975149 9.412649 3.325955 / -2544.588959 2817.746902 1553.511413
-0.006650 0.011150 0.009450 / -4.981799 9.423799 3.335405 / -2549.574083 2827.176277 1556.851544
-0.006650 0.011150 0.009450 / -4.988449 9.434949 3.344855 / -2554.565857 2836.616801 1560.201124
-0.006650 0.011150 0.009450 / -4.995099 9.446099 3.354305 / -2559.564280 2846.068475 1563.560154
-0.006650 0.011150 0.009450 / -5.001749 9.457249 3.363755 / -2564.569354 2855.531300 1566.928634
-0.006650 0.011150 0.009450 / -5.008399 9.468399 3.373205 / -2569.581078 2865.005274 1570.306564
-0.006650 0.011150 0.009450 / -5.015049 9.479549 3.382655 / -2574.599452 2874.490399 1573.693944
-0.006650 0.011150 0.009450 / -5.021699 9.490699 3.392105 / -2579.624476 2883.986673 1577.090775
-0.006650 0.011150 0.009450 / -5.028349 9.501849 3.401555 / -2584.656150 2893.494097 1580.497055
-0.006650 0.011150 0.009450 / -5.034999 9.512999 3.411005 / -2589.694474 2903.012672 1583.912785
0.006775 -0.003450 0.012425 / -5.028224 9.509549 3.423430 / -2594.719310 2912.520496 1587.342428
0.006775 -0.003450 0.012425 / -5.021449 9.506099 3.435855 / -2599.737372 2922.024871 1590.784496
0.006775 -0.003450 0.012425 / -5.014674 9.502649 3.448280 / -2604.748658 2931.525795 1594.238989
0.006775 -0.003450 0.012425 / -5.007899 9.499199 3.460705 / -2609.753170 2941.023269 1597.705906
0.006775 -0.003450 0.012425 / -5.001124 9.495749 3.473130 / -2614.750906 2950.517294 1601.185249
0.006775 -0.003450 0.012425 / -4.994349 9.492299 3.485555 / -2619.741868 2960.007868 1604.677017
0.006775 -0.003450 0.012425 / -4.987574 9.488849 3.497980 / -2624.726054 2969.494993 1608.181210
0.006775 -0.003450 0.012425 / -4.980799 9.485399 3.510405 / -2629.703465 2978.978667 1611.697827
0.006775 -0.003450 0.012425 / -4.974024 9.481949 3.522830 / -2634.674102 2988.458891 1615.226870
0.006775 -0.003450 0.012425 / -4.967249 9.478499 3.535255 / -2639.637963 2997.935666 1618.768338
0.006775 -0.003450 0.012425 / -4.960474 9.475049 3.547680 / -2644.595050 3007.408990 1622.322231
0.006775 -0.003450 0.012425 / -4.953699 9.471599 3.560105 / -2649.545361 3016.878865 1625.888548
0.006775 -0.003450 0.012425 / -4.946924 9.468149 3.572530 / -2654.488897 3026.345289 1629.467291
0.006775 -0.003450 0.012425 / -4.940149 9.464699 3.584955 / -2659.425659 3035.808264 1633.058459
0.006775 -0.003450 0.012425 / -4.933374 9.461249 3.597380 / -2664.355645 3045.267788 1636.662052
0.006775 -0.003450 0.012425 / -4.926599 9.457799 3.609805 / -2669.278856 3054.723863 1640.278070
0.006775 -0.003450 0.012425 / -4.919824 9.454350 3.622230 / -2674.195293 3064.176487 1643.906512
0.006775 -0.003450 0.012425 / -4.913049 9.450900 3.634655 / -2679.104954 3073.625662 1647.547380
0.006775 -0.003450 0.012425 / -4.906274 9.447450 3.647080 / -2684.007840 3083.071386 1651.200673
0.006775 -0.003450 0.012425 / -4.899499 9.444000 3.659505 / -2688.903952 3092.513661 1654.866391
0.006775 -0.003450 0.012425 / -4.892724 9.440550 3.671930 / -2693.793288 3101.952485 1658.544533
0.006775 -0.003450 0.012425 / -4.885949 9.437100 3.684355 / -2698.675849 3111.387860 1662.235101
0.006775 -0.003450 0.012425 / -4.879174 9.433650 3.696780 / -2703.551636 3120.819784 1665.938094
0.006775 -0.003450 0.012425 / -4.872399 9.430200 3.709205 / -2708.420647 3130.248259 1669.653511
0.006775 -0.003450 0.012425 / -4.865624 9.426750 3.721630 / -2713.282883 3139.673284 1673.381354
0.006775 -0.003450 0.012425 / -4.858849 9.423300 3.734055 / -2718.138344 3149.094858 1677.121622
0.006775 -0.003450 0.012425 / -4.852074 9.419850 3.746480 / -2722.987031 3158.512983 1680.874315
0.006775 -0.003450 0.012425 / -4.845299 9.416400 3.758905 / -2727.828942 3167.927657 1684.639432
0.006775 -0.003450 0.012425 / -4.838524 9.412950 3.771330 / -2732.664078 3177.338882 1688.416975
0.006775 -0.003450 0.012425 / -4.831749 9.409500 3.783755 / -2737.492439 3186.746657 1692.206943
0.006775 -0.003450 0.012425 / -4.824974 9.406050 3.796180 / -2742.314026 3196.150981 1696.009336
0.006775 -0.003450 0.012425 / -4.818199 9.402600 3.808605 / -2747.128837 3205.551856 1699.824153
0.006775 -0.003450 0.012425 / -4.811424 9.399150 3.821030 / -2751.936873 3214.949281 1703.651396
0.006775 -0.003450 0.012425 / -4.804649 9.395700 3.833455 / -2756.738134 3224.343255 1707.491064
0.006775 -0.003450 0.012425 / -4.797874 9.392250 3.845880 / -2761.532621 3233.733780 1711.343156
0.006775 -0.003450 0.012425 / -4.791099 9.388800 3.858305 / -2766.320332 3243.120854 1715.207674
0.006775 -0.003450 0.012425 / -4.784324 9.385350 3.870730 / -2771.101268 3252.504479 1719.084617
0.006775 -0.003450 0.012425 / -4.777549 9.381900 3.883155 / -2775.875429 3261.884654 1722.973985
0.006775 -0.003450 0.012425 / -4.770774 9.378450 3.895580 / -2780.642815 3271.261379 1726.875777
0.006775 -0.003450 0.012425 / -4.763999 9.375000 3.908005 / -2785.403427 3280.634653 1730.789995
0.002350 -0.026975 0.004625 / -4.761649 9.348025 3.912630 / -2790.163900 3289.969190 1734.704938
0.002350 -0.026975 0.004625 / -4.759299 9.321050 3.917255 / -2794.922024 3299.276753 1738.624505
0.002350 -0.026975 0.004625 / -4.756949 9.294075 3.921880 / -2799.677798 3308.557340 1742.548698
0.002350 -0.026975 0.004625 / -4.754599 9.267100 3.926505 / -2804.431222 3317.810952 1746.477516
0.002350 -0.026975 0.004625 / -4.752249 9.240125 3.931130 / -2809.182296 3327.037589 1750.410958
0.002350 -0.026975 0.004625 / -4.749899 9.213150 3.935755 / -2813.931019 3336.237251 1754.349026
0.002350 -0.026975 0.004625 / -4.747549 9.186175 3.940380 / -2818.677393 3345.409938 1758.291718
0.002350 -0.026975 0.004625 / -4.745199 9.159200 3.945005 / -2823.421417 3354.555650 1762.239036
0.002350 -0.026975 0.004625 / -4.742849 9.132225 3.949630 / -2828.163091 3363.674387 1766.190978
0.002350 -0.026975 0.004625 / -4.740499 9.105250 3.954255 / -2832.902415 3372.766149 1770.147546
0.002350 -0.026975 0.004625 / -4.738149 9.078275 3.958880 / -2837.639389 3381.830937 1774.108738
0.002350 -0.026975 0.004625 / -4.735799 9.051300 3.963505 / -2842.374013 3390.868749 1778.074556
0.002350 -0.026975 0.004625 / -4.733449 9.024325 3.968130 / -2847.106287 3399.879586 1782.044998
0.002350 -0.026975 0.004625 / -4.731099 8.997350 3.972755 / -2851.836211 3408.863448 1786.020065
0.002350 -0.026975 0.004625 / -4.728749 8.970375 3.977380 / -2856.563785 3417.820335 1789.999758
0.002350 -0.026975 0.004625 / -4.726399 8.943399 3.982005 / -2861.289010 3426.750247 1793.984075
0.002350 -0.026975 0.004625 / -4.724049 8.916424 3.986630 / -2866.011884 3435.653184 1797.973017
0.002350 -0.026975 0.004625 / -4.721699 8.889449 3.991255 / -2870.732408 3444.529146 1801.966585
0.002350 -0.026975 0.004625 / -4.719349 8.862474 3.995880 / -2875.450582 3453.378132 1805.964777
0.002350 -0.026975 0.004625 / -4.716999 8.835499 4.000505 / -2880.166406 3462.200144 1809.967594
0.002350 -0.026975 0.004625 / -4.714649 8.808524 4.005130 / -2884.879881 3470.995181 1813.975037
0.002350 -0.026975 0.004625 / -4.712299 8.781549 4.009755 / -2889.591005 3479.763243 1817.987104
0.002350 -0.026975 0.004625 / -4.709949 8.754574 4.014380 / -2894.299779 3488.504330 1822.003796
0.002350 -0.026975 0.004625 / -4.707599 8.727599 4.019005 / -2899.006204 3497.218442 1826.025113
0.002350 -0.026975 0.004625 / -4.705249 8.700624 4.023630 / -2903.710278 3505.905579 1830.051055
0.002350 -0.026975 0.004625 / -4.702899 8.673649 4.028255 / -2908.412002 3514.565741 1834.081622
0.002350 -0.026975 0.004625 / -4.700549 8.646674 4.032880 / -2913.111377 3523.198928 1838.116814
0.002350 -0.026975 0.004625 / -4.698199 8.619699 4.037505 / -2917.808401 3531.805139 1842.156631
0.002350 -0.026975 0.004625 / -4.695849 8.592724 4.042130 / -2922.503076 3540.384376 1846.201074
0.002350 -0.026975 0.004625 / -4.693500 8.565749 4.046755 / -2927.195400 3548.936638 1850.250141
0.002350 -0.026975 0.004625 / -4.691150 8.538774 4.051380 / -2931.885375 3557.461925 1854.303833
0.002350 -0.026975 0.004625 / -4.688800 8.511799 4.056004 / -2936.572999 3565.960236 1858.362150
0.002350 -0.026975 0.004625 / -4.686450 8.484824 4.060629 / -2941.258274 3574.431573 1862.425092
0.002350 -0.026975 0.004625 / -4.684100 8.457849 4.065254 / -2945.941199 3582.875935 1866.492658
0.002350 -0.026975 0.004625 / -4.681750 8.430874 4.069879 / -2950.621773 3591.293322 1870.564850
0.002350 -0.026975 0.004625 / -4.679400 8.403899 4.074504 / -2955.299998 3599.683733 1874.641667
0.002350 -0.026975 0.004625 / -4.677050 8.376924 4.079129 / -2959.975873 3608.047170 1878.723109
0.002350 -0.026975 0.004625 / -4.674700 8.349949 4.083754 / -2964.649397 3616.383632 1882.809176
0.002350 -0.026975 0.004625 / -4.672350 8.322974 4.088379 / -2969.320572 3624.693119 1886.899868
0.002350 -0.026975 0.004625 / -4.670000 8.295999 4.093004 / -2973.989397 3632.975630 1890.995185
-0.006650 0.005075 -0.000550 / -4.676650 8.301074 4.092454 / -2978.669372 3641.279242 1895.087364
-0.006650 0.005075 -0.000550 / -4.683300 8.306149 4.091904 / -2983.355997 3649.587928 1899.178993
-0.006650 0.005075 -0.000550 / -4.689950 8.311224 4.091354 / -2988.049271 3657.901690 1903.270073
-0.006650 0.005075 -0.000550 / -4.696600 8.316299 4.090804 / -2992.749196 3666.220527 1907.360602
-0.006650 0.005075 -0.000550 / -4.703250 8.321374 4.090254 / -2997.455771 3674.544438 1911.450581
-0.006650 0.005075 -0.000550 / -4.709900 8.326449 4.089704 / -3002.168996 3682.873425 1915.540010
-0.006650 0.005075 -0.000550 / -4.716550 8.331524 4.089154 / -3006.888871 3691.207487 1919.628890
-0.006650 0.005075 -0.000550 / -4.723200 8.336599 4.088604 / -3011.615396 3699.546623 1923.717219
-0.006650 0.005075 -0.000550 / -4.729850 8.341674 4.088054 / -3016.348570 3707.890835 1927.804998
-0.006650 0.005075 -0.000550 / -4.736500 8.346749 4.087504 / -3021.088395 3716.240121 1931.892227
-0.006650 0.005075 -0.000550 / -4.743150 8.351824 4.086954 / -3025.834870 3724.594483 1935.978906
-0.006650 0.005075 -0.000550 / -4.749800 8.356899 4.086404 / -3030.587995 3732.953920 1940.065036
-0.006650 0.005075 -0.000550 / -4.756450 8.361974 4.085854 / -3035.347770 3741.318431 1944.150615
-0.006650 0.005075 -0.000550 / -4.763100 8.367049 4.085304 / -3040.114195 3749.688018 1948.235644
-0.006650 0.005075 -0.000550 / -4.769750 8.372124 4.084754 / -3044.887270 3758.062679 1952.320123
-0.006650 0.005075 -0.000550 / -4.776400 8.377199 4.084204 / -3049.666995 3766.442416 1956.404052
-0.006650 0.005075 -0.000550 / -4.783050 8.382274 4.083654 / -3054.453370 3774.827227 1960.487432
-0.006650 0.005075 -0.000550 / -4.789700 8.387349 4.083104 / -3059.246394 3783.217114 1964.570261
-0.006650 0.005075 -0.000550 / -4.796350 8.392424 4.082554 / -3064.046069 3791.612075 1968.652540
-0.006650 0.005075 -0.000550 / -4.803000 8.397499 4.082004 / -3068.852394 3800.012112 1972.734269
-0.006650 0.005075 -0.000550 / -4.809650 8.402574 4.081454 / -3073.665369 3808.417223 1976.815448
-0.006650 0.005075 -0.000550 / -4.816300 8.407649 4.080904 / -3078.484994 3816.827410 1980.896077
-0.006650 0.005075 -0.000550 / -4.822950 8.412724 4.080354 / -3083.311269 3825.242671 1984.976156
-0.006650 0.005075 -0.000550 / -4.829600 8.417799 4.079804 / -3088.144194 3833.663008 1989.055685
-0.006650 0.005075 -0.000550 / -4.836250 8.422874 4.079254 / -3092.983769 3842.088419 1993.134664
-0.006650 0.005075 -0.000550 / -4.842900 8.427949 4.078704 / -3097.829994 3850.518906 1997.213093
-0.006650 0.005075 -0.000550 / -4.849550 8.433024 4.078154 / -3102.682869 3858.954467 2001.290973
-0.006650 0.005075 -0.000550 / -4.856200 8.438099 4.077604 / -3107.542394 3867.395104 2005.368302
-0.006650 0.005075 -0.000550 / -4.862850 8.443174 4.077054 / -3112.408569 3875.840815 2009.445081
-0.006650 0.005075 -0.000550 / -4.869500 8.448249 4.076504 / -3117.281394 3884.291602 2013.521310
-0.006650 0.005075 -0.000550 / -4.876150 8.453324 4.075954 / -3122.160869 3892.747463 2017.596989
-0.006650 0.005075 -0.000550 / -4.882800 8.458399 4.075404 / -3127.046994 3901.208400 2021.672118
-0.006650 0.005075 -0.000550 / -4.889450 8.463474 4.074854 / -3131.939769 3909.674411 2025.746697
-0.006650 0.005075 -0.000550 / -4.896100 8.468549 4.074304 / -3136.839195 3918.145498 2029.820726
-0.006650 0.005075 -0.000550 / -4.902750 8.473624 4.073754 / -3141.745270 3926.621659 2033.894205
-0.006650 0.005075 -0.000550 / -4.909400 8.478699 4.073204 / -3146.657995 3935.102895 2037.967134
-0.006650 0.005075 -0.000550 / -4.916050 8.483774 4.072654 / -3151.577370 3943.589207 2042.039513
-0.006650 0.005075 -0.000550 / -4.922700 8.488849 4.072104 / -3156.503395 3952.080593 2046.111342
-0.006650 0.005075 -0.000550 / -4.929350 8.493924 4.071554 / -3161.436070 3960.577054 2050.182621
-0.006650 0.005075 -0.000550 / -4.936000 8.498999 4.071004 / -3166.375395 3969.078591 2054.253349
0.009775 0.001175 -0.014450 / -4.926225 8.500174 4.056554 / -3171.296733 3977.579352 2058.302678
0.009775 0.001175 -0.014450 / -4.916450 8.501349 4.042104 / -3176.208295 3986.081289 2062.337557
0.009775 0.001175 -0.014450 / -4.906675 8.502524 4.027654 / -3181.110083 3994.584400 2066.357986
0.009775 0.001175 -0.014450 / -4.896900 8.503699 4.013204 / -3186.002095 4003.088687 2070.363965
0.009775 0.001175 -0.014450 / -4.887125 8.504874 3.998754 / -3190.884333 4011.594148 2074.355494
0.009775 0.001175 -0.014450 / -4.877350 8.506049 3.984304 / -3195.756796 4020.100785 2078.332573
0.009775 0.001175 -0.014450 / -4.867575 8.507224 3.969854 / -3200.619483 4028.608596 2082.295202
0.009775 0.001175 -0.014450 / -4.857800 8.508399 3.955404 / -3205.472396 4037.117583 2086.243380
0.009775 0.001175 -0.014450 / -4.848025 8.509574 3.940954 / -3210.315533 4045.627744 2090.177109
0.009775 0.001175 -0.014450 / -4.838250 8.510749 3.926504 / -3215.148896 4054.139081 2094.096388
0.009775 0.001175 -0.014450 / -4.828475 8.511924 3.912054 / -3219.972483 4062.651593 2098.001217
0.009775 0.001175 -0.014450 / -4.818700 8.513099 3.897604 / -3224.786296 4071.165279 2101.891596
0.009775 0.001175 -0.014450 / -4.808925 8.514274 3.883154 / -3229.590333 4079.680141 2105.767524
0.009775 0.001175 -0.014450 / -4.799150 8.515449 3.868704 / -3234.384596 4088.196178 2109.629003
0.009775 0.001175 -0.014450 / -4.789375 8.516624 3.854254 / -3239.169084 4096.713390 2113.476032
0.009775 0.001175 -0.014450 / -4.779600 8.517799 3.839804 / -3243.943796 4105.231776 2117.308611
0.009775 0.001175 -0.014450 / -4.769825 8.518974 3.825354 / -3248.708734 4113.751338 2121.126739
0.009775 0.001175 -0.014450 / -4.760050 8.520149 3.810904 / -3253.463896 4122.272075 2124.930418
0.009775 0.001175 -0.014450 / -4.750275 8.521324 3.796454 / -3258.209284 4130.793987 2128.719647
0.009775 0.001175 -0.014450 / -4.740500 8.522499 3.782004 / -3262.944896 4139.317074 2132.494425
0.009775 0.001175 -0.014450 / -4.730725 8.523674 3.767554 / -3267.670734 4147.841336 2136.254754
0.009775 0.001175 -0.014450 / -4.720950 8.524849 3.753104 / -3272.386796 4156.366772 2140.000633
0.009775 0.001175 -0.014450 / -4.711175 8.526024 3.738654 / -3277.093084 4164.893384 2143.732061
0.009775 0.001175 -0.014450 / -4.701400 8.527199 3.724204 / -3281.789596 4173.421171 2147.449040
0.009775 0.001175 -0.014450 / -4.691625 8.528374 3.709754 / -3286.476333 4181.950133 2151.151568
0.009775 0.001175 -0.014450 / -4.681850 8.529549 3.695304 / -3291.153296 4190.480270 2154.839647
0.009775 0.001175 -0.014450 / -4.672075 8.530725 3.680854 / -3295.820483 4199.011582 2158.513276
0.009775 0.001175 -0.014450 / -4.662300 8.531900 3.666404 / -3300.477896 4207.544069 2162.172454
0.009775 0.001175 -0.014450 / -4.652525 8.533075 3.651954 / -3305.125533 4216.077732 2165.817183
0.009775 0.001175 -0.014450 / -4.642750 8.534250 3.637504 / -3309.763396 4224.612569 2169.447461
0.009775 0.001175 -0.014450 / -4.632975 8.535425 3.623054 / -3314.391483 4233.148581 2173.063290
0.009775 0.001175 -0.014450 / -4.623200 8.536600 3.608604 / -3319.009796 4241.685768 2176.664668
0.009775 0.001175 -0.014450 / -4.613425 8.537775 3.594153 / -3323.618333 4250.224130 2180.251597
0.009775 0.001175 -0.014450 / -4.603650 8.538950 3.579703 / -3328.217096 4258.763667 2183.824075
0.009775 0.001175 -0.014450 / -4.593875 8.540125 3.565253 / -3332.806083 4267.304379 2187.382104
0.009775 0.001175 -0.014450 / -4.584100 8.541300 3.550803 / -3337.385295 4275.846267 2190.925682
0.009775 0.001175 -0.014450 / -4.574325 8.542475 3.536353 / -3341.954733 4284.389329 2194.454811
0.009775 0.001175 -0.014450 / -4.564550 8.543650 3.521903 / -3346.514395 4292.933566 2197.969489
0.009775 0.001175 -0.014450 / -4.554775 8.544825 3.507453 / -3351.064283 4301.478979 2201.469717
0.009775 0.001175 -0.014450 / -4.545000 8.546000 3.493003 / -3355.604395 4310.025566 2204.955496
-0.001150 0.003250 -0.000200 / -4.546150 8.549250 3.492803 / -3360.151120 4318.576441 2208.448199
-0.001150 0.003250 -0.000200 / -4.547300 8.552500 3.492603 / -3364.698995 4327.130565 2211.940702
-0.001150 0.003250 -0.000200 / -4.548450 8.555750 3.492403 / -3369.248020 4335.687940 2215.433006
-0.001150 0.003250 -0.000200 / -4.549600 8.559000 3.492203 / -3373.798195 4344.248565 2218.925109
-0.001150 0.003250 -0.000200 / -4.550750 8.562250 3.492003 / -3378.349519 4352.812440 2222.417013
-0.001150 0.003250 -0.000200 / -4.551900 8.565500 3.491803 / -3382.901994 4361.379564 2225.908716
-0.001150 0.003250 -0.000200 / -4.553050 8.568750 3.491603 / -3387.455619 4369.949939 2229.400219
-0.001150 0.003250 -0.000200 / -4.554200 8.572000 3.491403 / -3392.010394 4378.523564 2232.891522
-0.001150 0.003250 -0.000200 / -4.555350 8.575250 3.491203 / -3396.566319 4387.100438 2236.382626
-0.001150 0.003250 -0.000200 / -4.556500 8.578500 3.491003 / -3401.123394 4395.680563 2239.873529
-0.001150 0.003250 -0.000200 / -4.557650 8.581750 3.490803 / -3405.681619 4404.263938 2243.364232
-0.001150 0.003250 -0.000200 / -4.558800 8.585000 3.490603 / -3410.240993 4412.850562 2246.854736
-0.001150 0.003250 -0.000200 / -4.559950 8.588250 3.490403 / -3414.801518 4421.440437 2250.345039
-0.001150 0.003250 -0.000200 / -4.561100 8.591500 3.490203 / -3419.363193 4430.033561 2253.835142
-0.001150 0.003250 -0.000200 / -4.562250 8.594750 3.490003 / -3423.926018 4438.629936 2257.325045
-0.001150 0.003250 -0.000200 / -4.563400 8.598000 3.489803 / -3428.489993 4447.229560 2260.814749
-0.001150 0.003250 -0.000200 / -4.564550 8.601249 3.489603 / -3433.055118 4455.832435 2264.304252
-0.001150 0.003250 -0.000200 / -4.565700 8.604499 3.489403 / -3437.621393 4464.438559 2267.793555
-0.001150 0.003250 -0.000200 / -4.566850 8.607749 3.489203 / -3442.188817 4473.047934 2271.282658
-0.001150 0.003250 -0.000200 / -4.568000 8.610999 3.489003 / -3446.757392 4481.660558 2274.771561
-0.001150 0.003250 -0.000200 / -4.569150 8.614249 3.488803 / -3451.327117 4490.276433 2278.260264
-0.001150 0.003250 -0.000200 / -4.570300 8.617499 3.488603 / -3455.897992 4498.895557 2281.748768
-0.001150 0.003250 -0.000200 / -4.571450 8.620749 3.488403 / -3460.470017 4507.517931 2285.237071
-0.001150 0.003250 -0.000200 / -4.572600 8.623999 3.488203 / -3465.043192 4516.143556 2288.725174
-0.001150 0.003250 -0.000200 / -4.573750 8.627249 3.488003 / -3469.617516 4524.772430 2292.213077
-0.001150 0.003250 -0.000200 / -4.574900 8.630499 3.487803 / -3474.192991 4533.404554 2295.700780
-0.001150 0.003250 -0.000200 / -4.576050 8.633749 3.487603 / -3478.769616 4542.039929 2299.188283
-0.001150 0.003250 -0.000200 / -4.577200 8.636999 3.487403 / -3483.347391 4550.678553 2302.675586
-0.001150 0.003250 -0.000200 / -4.578350 8.640249 3.487203 / -3487.926316 4559.320427 2306.162689
-0.001150 0.003250 -0.000200 / -4.579500 8.643499 3.487003 / -3492.506391 4567.965551 2309.649592
-0.001150 0.003250 -0.000200 / -4.580650 8.646749 3.486803 / -3497.087615 4576.613926 2313.136296
-0.001150 0.003250 -0.000200 / -4.581800 8.649999 3.486603 / -3501.669990 4585.265550 2316.622799
-0.001150 0.003250 -0.000200 / -4.582950 8.653249 3.486403 / -3506.253515 4593.920424 2320.109102
-0.001150 0.003250 -0.000200 / -4.584100 8.656499 3.486203 / -3510.838190 4602.578548 2323.595205
-0.001150 0.003250 -0.000200 / -4.585250 8.659749 3.486003 / -3515.424015 4611.239922 2327.081108
-0.001150 0.003250 -0.000200 / -4.586400 8.662999 3.485803 / -3520.010989 4619.904546 2330.566811
-0.001150 0.003250 -0.000200 / -4.587550 8.666249 3.485603 / -3524.599114 4628.572420 2334.052314
-0.001150 0.003250 -0.000200 / -4.588700 8.669499 3.485403 / -3529.188389 4637.243544 2337.537617
-0.001150 0.003250 -0.000200 / -4.589850 8.672749 3.485203 / -3533.778814 4645.917919 2341.022720
-0.001150 0.003250 -0.000200 / -4.591000 8.675999 3.485003 / -3538.370388 4654.595543 2344.507623
0.015175 0.014900 -0.010525 / -4.575825 8.690899 3.474478 / -3542.938626 4663.293892 2347.976838
0.015175 0.014900 -0.010525 / -4.560650 8.705799 3.463953 / -3547.491688 4672.007141 2351.435529
0.015175 0.014900 -0.010525 / -4.545475 8.720699 3.453428 / -3552.029575 4680.735290 2354.883694
0.015175 0.014900 -0.010525 / -4.530300 8.735599 3.442903 / -3556.552287 4689.478339 2358.321335
0.015175 0.014900 -0.010525 / -4.515125 8.750499 3.432378 / -3561.059824 4698.236288 2361.748451
0.015175 0.014900 -0.010525 / -4.499950 8.765399 3.421853 / -3565.552187 4707.009137 2365.165041
0.015175 0.014900 -0.010525 / -4.484775 8.780299 3.411328 / -3570.029374 4715.796886 2368.571107
0.015175 0.014900 -0.010525 / -4.469600 8.795199 3.400803 / -3574.491386 4724.599535 2371.966648
0.015175 0.014900 -0.010525 / -4.454425 8.810099 3.390278 / -3578.938223 4733.417084 2375.351664
0.015175 0.014900 -0.010525 / -4.439250 8.824999 3.379753 / -3583.369885 4742.249533 2378.726155
0.015175 0.014900 -0.010525 / -4.424075 8.839899 3.369228 / -3587.786372 4751.096883 2382.090121
0.015175 0.014900 -0.010525 / -4.408900 8.854799 3.358703 / -3592.187684 4759.959132 2385.443562
0.015175 0.014900 -0.010525 / -4.393724 8.869699 3.348179 / -3596.573821 4768.836281 2388.786478
0.015175 0.014900 -0.010525 / -4.378549 8.884599 3.337654 / -3600.944783 4777.728330 2392.118869
0.015175 0.014900 -0.010525 / -4.363374 8.899499 3.327129 / -3605.300570 4786.635279 2395.440735
0.015175 0.014900 -0.010525 / -4.348199 8.914399 3.316604 / -3609.641182 4795.557128 2398.752076
0.015175 0.014900 -0.010525 / -4.333024 8.929299 3.306079 / -3613.966619 4804.493877 2402.052892
0.015175 0.014900 -0.010525 / -4.317849 8.944199 3.295554 / -3618.276881 4813.445527 2405.343183
0.015175 0.014900 -0.010525 / -4.302674 8.959099 3.285029 / -3622.571967 4822.412076 2408.622950
0.015175 0.014900 -0.010525 / -4.287499 8.973999 3.274504 / -3626.851879 4831.393525 2411.892191
0.015175 0.014900 -0.010525 / -4.272324 8.988899 3.263979 / -3631.116616 4840.389874 2415.150907
0.015175 0.014900 -0.010525 / -4.257149 9.003799 3.253454 / -3635.366178 4849.401123 2418.399099
0.015175 0.014900 -0.010525 / -4.241974 9.018699 3.242929 / -3639.600565 4858.427272 2421.636765
0.015175 0.014900 -0.010525 / -4.226799 9.033599 3.232404 / -3643.819776 4867.468322 2424.863907
0.015175 0.014900 -0.010525 / -4.211624 9.048499 3.221879 / -3648.023813 4876.524271 2428.080523
0.015175 0.014900 -0.010525 / -4.196449 9.063399 3.211354 / -3652.212675 4885.595120 2431.286615
0.015175 0.014900 -0.010525 / -4.181274 9.078299 3.200829 / -3656.386361 4894.680869 2434.482181
0.015175 0.014900 -0.010525 / -4.166099 9.093199 3.190304 / -3660.544873 4903.781518 2437.667223
0.015175 0.014900 -0.010525 / -4.150924 9.108099 3.179779 / -3664.688210 4912.897068 2440.841740
0.015175 0.014900 -0.010525 / -4.135749 9.122999 3.169254 / -3668.816371 4922.027517 2444.005731
0.015175 0.014900 -0.010525 / -4.120574 9.137899 3.158729 / -3672.929358 4931.172866 2447.159198
0.015175 0.014900 -0.010525 / -4.105399 9.152799 3.148204 / -3677.027169 4940.333115 2450.302140
0.015175 0.014900 -0.010525 / -4.090224 9.167699 3.137679 / -3681.109806 4949.508265 2453.434557
0.015175 0.014900 -0.010525 / -4.075049 9.182599 3.127154 / -3685.177267 4958.698314 2456.556449
0.015175 0.014900 -0.010525 / -4.059874 9.197499 3.116629 / -3689.229554 4967.903263 2459.667816
0.015175 0.014900 -0.010525 / -4.044699 9.212399 3.106104 / -3693.266665 4977.123113 2462.768658
0.015175 0.014900 -0.010525 / -4.029524 9.227299 3.095580 / -3697.288602 4986.357862 2465.858975
0.015175 0.014900 -0.010525 / -4.014349 9.242199 3.085055 / -3701.295363 4995.607511 2468.938767
0.015175 0.014900 -0.010525 / -3.999174 9.257099 3.074530 / -3705.286950 5004.872060 2472.008034
0.015175 0.014900 -0.010525 / -3.983999 9.271999 3.064005 / -3709.263361 5014.151510 2475.066776
0.005825 0.015200 -0.005525 / -3.978174 9.287199 3.058480 / -3713.238622 5023.446309 2478.122493
0.005825 0.015200 -0.005525 / -3.972349 9.302399 3.052955 / -3717.208059 5032.756308 2481.172685
0.005825 0.015200 -0.005525 / -3.966524 9.317599 3.047430 / -3721.171670 5042.081508 2484.217352
0.005825 0.015200 -0.005525 / -3.960699 9.332799 3.041905 / -3725.129456 5051.421907 2487.256495
0.005825 0.015200 -0.005525 / -3.954874 9.347999 3.036380 / -3729.081418 5060.777506 2490.290112
0.005825 0.015200 -0.005525 / -3.949049 9.363199 3.030855 / -3733.027554 5070.148306 2493.318204
0.005825 0.015200 -0.005525 / -3.943224 9.378399 3.025330 / -3736.967865 5079.534305 2496.340771
0.005825 0.015200 -0.005525 / -3.937399 9.393599 3.019805 / -3740.902351 5088.935505 2499.357813
0.005825 0.015200 -0.005525 / -3.931574 9.408799 3.014280 / -3744.831013 5098.351904 2502.369330
0.005825 0.015200 -0.005525 / -3.925749 9.423999 3.008755 / -3748.753849 5107.783504 2505.375322
0.005825 0.015200 -0.005525 / -3.919924 9.439199 3.003230 / -3752.670860 5117.230303 2508.375789
0.005825 0.015200 -0.005525 / -3.914099 9.454399 2.997705 / -3756.582046 5126.692303 2511.370731
0.005825 0.015200 -0.005525 / -3.908274 9.469599 2.992180 / -3760.487407 5136.169502 2514.360148
0.005825 0.015200 -0.005525 / -3.902449 9.484800 2.986655 / -3764.386943 5145.661902 2517.344040
0.005825 0.015200 -0.005525 / -3.896624 9.500000 2.981130 / -3768.280654 5155.169501 2520.322407
0.005825 0.015200 -0.005525 / -3.890799 9.515200 2.975605 / -3772.168540 5164.692301 2523.295249
0.005825 0.015200 -0.005525 / -3.884974 9.530400 2.970079 / -3776.050602 5174.230300 2526.262566
0.005825 0.015200 -0.005525 / -3.879149 9.545600 2.964554 / -3779.926838 5183.783500 2529.224358
0.005825 0.015200 -0.005525 / -3.873324 9.560800 2.959029 / -3783.797249 5193.351899 2532.180625
0.005825 0.015200 -0.005525 / -3.867498 9.576000 2.953504 / -3787.661835 5202.935499 2535.131367
0.005825 0.015200 -0.005525 / -3.861673 9.591200 2.947979 / -3791.520595 5212.534299 2538.076584
0.005825 0.015200 -0.005525 / -3.855848 9.606400 2.942454 / -3795.373531 5222.148298 2541.016276
0.005825 0.015200 -0.005525 / -3.850023 9.621600 2.936929 / -3799.220642 5231.777498 2543.950443
0.005825 0.015200 -0.005525 / -3.844198 9.636800 2.931404 / -3803.061928 5241.421898 2546.879085
0.005825 0.015200 -0.005525 / -3.838373 9.652000 2.925879 / -3806.897389 5251.081497 2549.802202
0.005825 0.015200 -0.005525 / -3.832548 9.667200 2.920354 / -3810.727025 5260.756297 2552.719794
0.005825 0.015200 -0.005525 / -3.826723 9.682400 2.914829 / -3814.550836 5270.446297 2555.631861
0.005825 0.015200 -0.005525 / -3.820898 9.697600 2.909304 / -3818.368822 5280.151496 2558.538402
0.005825 0.015200 -0.005525 / -3.815073 9.712800 2.903779 / -3822.180982 5289.871896 2561.439419
0.005825 0.015200 -0.005525 / -3.809248 9.728000 2.898254 / -3825.987318 5299.607496 2564.334911
0.005825 0.015200 -0.005525 / -3.803423 9.743200 2.892729 / -3829.787829 5309.358296 2567.224878
0.005825 0.015200 -0.005525 / -3.797598 9.758400 2.887204 / -3833.582515 5319.124296 2570.109320
0.005825 0.015200 -0.005525 / -3.791773 9.773600 2.881679 / -3837.371375 5328.905495 2572.988237
0.005825 0.015200 -0.005525 / -3.785948 9.788800 2.876154 / -3841.154411 5338.701895 2575.861629
0.005825 0.015200 -0.005525 / -3.780123 9.804000 2.870629 / -3844.931622 5348.513495 2578.729496
0.005825 0.015200 -0.005525 / -3.774298 9.819200 2.865104 / -3848.703007 5358.340295 2581.591837
0.005825 0.015200 -0.005525 / -3.768473 9.834400 2.859579 / -3852.468568 5368.182295 2584.448654
0.005825 0.015200 -0.005525 / -3.762648 9.849600 2.854054 / -3856.228304 5378.039495 2587.299946
0.005825 0.015200 -0.005525 / -3.756823 9.864800 2.848529 / -3859.982214 5387.911895 2590.145713
0.005825 0.015200 -0.005525 / -3.750998 9.880000 2.843004 / -3863.730300 5397.799494 2592.985955
-0.007950 0.016475 -0.000825 / -3.758948 9.896475 2.842179 / -3867.493223 5407.704207 2595.827722
-0.007950 0.016475 -0.000825 / -3.766898 9.912950 2.841354 / -3871.264096 5417.625394 2598.668663
-0.007950 0.016475 -0.000825 / -3.774848 9.929425 2.840529 / -3875.042919 5427.563057 2601.508780
-0.007950 0.016475 -0.000825 / -3.782798 9.945900 2.839704 / -3878.829692 5437.517194 2604.348072
-0.007950 0.016475 -0.000825 / -3.790748 9.962375 2.838879 / -3882.624416 5447.487806 2607.186539
-0.007950 0.016475 -0.000825 / -3.798698 9.978850 2.838054 / -3886.427089 5457.474894 2610.024180
-0.007950 0.016475 -0.000825 / -3.806648 9.995325 2.837229 / -3890.237712 5467.478456 2612.860997
-0.007950 0.016475 -0.000825 / -3.814598 10.011800 2.836404 / -3894.056285 5477.498494 2615.696989
-0.007950 0.016475 -0.000825 / -3.822548 10.028275 2.835579 / -3897.882809 5487.535006 2618.532155
-0.007950 0.016475 -0.000825 / -3.830498 10.044750 2.834754 / -3901.717282 5497.587993 2621.366497
-0.007950 0.016475 -0.000825 / -3.838448 10.061225 2.833929 / -3905.559705 5507.657456 2624.200013
-0.007950 0.016475 -0.000825 / -3.846398 10.077700 2.833104 / -3909.410079 5517.743393 2627.032705
-0.007950 0.016475 -0.000825 / -3.854348 10.094175 2.832279 / -3913.268402 5527.845806 2629.864572
-0.007950 0.016475 -0.000825 / -3.862298 10.110650 2.831454 / -3917.134675 5537.964693 2632.695613
-0.007950 0.016475 -0.000825 / -3.870248 10.127125 2.830629 / -3921.008899 5548.100055 2635.525830
-0.007950 0.016475 -0.000825 / -3.878198 10.143600 2.829804 / -3924.891072 5558.251893 2638.355221
-0.007950 0.016475 -0.000825 / -3.886148 10.160075 2.828979 / -3928.781196 5568.420205 2641.183788
-0.007950 0.016475 -0.000825 / -3.894098 10.176550 2.828154 / -3932.679269 5578.604993 2644.011529
-0.007950 0.016475 -0.000825 / -3.902049 10.193025 2.827329 / -3936.585293 5588.806255 2646.838446
-0.007950 0.016475 -0.000825 / -3.909999 10.209500 2.826504 / -3940.499266 5599.023992 2649.664537
-0.007950 0.016475 -0.000825 / -3.917949 10.225975 2.825679 / -3944.421190 5609.258205 2652.489804
-0.007950 0.016475 -0.000825 / -3.925899 10.242450 2.824854 / -3948.351064 5619.508892 2655.314245
-0.007950 0.016475 -0.000825 / -3.933849 10.258925 2.824029 / -3952.288887 5629.776055 2658.137861
-0.007950 0.016475 -0.000825 / -3.941799 10.275400 2.823204 / -3956.234661 5640.059692 2660.960653
-0.007950 0.016475 -0.000825 / -3.949749 10.291875 2.822379 / -3960.188384 5650.359804 2663.782619
-0.007950 0.016475 -0.000825 / -3.957699 10.308350 2.821554 / -3964.150058 5660.676392 2666.603761
-0.007950 0.016475 -0.000825 / -3.965649 10.324825 2.820729 / -3968.119682 5671.009454 2669.424077
-0.007950 0.016475 -0.000825 / -3.973599 10.341300 2.819904 / -3972.097256 5681.358992 2672.243568
-0.007950 0.016475 -0.000825 / -3.981549 10.357775 2.819079 / -3976.082779 5691.725004 2675.062234
-0.007950 0.016475 -0.000825 / -3.989499 10.374250 2.818254 / -3980.076253 5702.107491 2677.880076
-0.007950 0.016475 -0.000825 / -3.997449 10.390725 2.817429 / -3984.077677 5712.506454 2680.697092
-0.007950 0.016475 -0.000825 / -4.005399 10.407200 2.816604 / -3988.087051 5722.921891 2683.513283
-0.007950 0.016475 -0.000825 / -4.013349 10.423675 2.815779 / -3992.104375 5733.353804 2686.328649
-0.007950 0.016475 -0.000825 / -4.021299 10.440150 2.814954 / -3996.129648 5743.802191 2689.143191
-0.007950 0.016475 -0.000825 / -4.029249 10.456625 2.814129 / -4000.162872 5754.267053 2691.956907
-0.007950 0.016475 -0.000825 / -4.037199 10.473100 2.813304 / -4004.204046 5764.748391 2694.769798
-0.007950 0.016475 -0.000825 / -4.045149 10.489575 2.812479 / -4008.253170 5775.246203 2697.581864
-0.007950 0.016475 -0.000825 / -4.053099 10.506050 2.811654 / -4012.310244 5785.760490 2700.393105
-0.007950 0.016475 -0.000825 / -4.061049 10.522525 2.810829 / -4016.375268 5796.291253 2703.203521
-0.007950 0.016475 -0.000825 / -4.068999 10.539000 2.810004 / -4020.448242 5806.838490 2706.013113
-0.002400 0.011350 0.005050 / -4.071399 10.550350 2.815054 / -4024.520841 5817.394515 2708.830691
-0.002400 0.011350 0.005050 / -4.073799 10.561700 2.820104 / -4028.595840 5827.961890 2711.653320
-0.002400 0.011350 0.005050 / -4.076199 10.573050 2.825154 / -4032.673239 5838.540615 2714.480998
-0.002400 0.011350 0.005050 / -4.078599 10.584400 2.830204 / -4036.753038 5849.130689 2717.313727
-0.002400 0.011350 0.005050 / -4.080999 10.595750 2.835254 / -4040.835237 5859.732114 2720.151506
-0.002400 0.011350 0.005050 / -4.083399 10.607100 2.840304 / -4044.919836 5870.344889 2722.994334
-0.002400 0.011350 0.005050 / -4.085799 10.618450 2.845354 / -4049.006835 5880.969014 2725.842213
-0.002400 0.011350 0.005050 / -4.088199 10.629800 2.850404 / -4053.096234 5891.604488 2728.695142
-0.002400 0.011350 0.005050 / -4.090599 10.641150 2.855454 / -4057.188032 5902.251313 2731.553120
-0.002400 0.011350 0.005050 / -4.092999 10.652500 2.860504 / -4061.282231 5912.909488 2734.416149
-0.002400 0.011350 0.005050 / -4.095399 10.663850 2.865554 / -4065.378830 5923.579012 2737.284227
-0.002400 0.011350 0.005050 / -4.097799 10.675200 2.870604 / -4069.477829 5934.259887 2740.157356
-0.002400 0.011350 0.005050 / -4.100199 10.686550 2.875654 / -4073.579228 5944.952111 2743.035535
-0.002400 0.011350 0.005050 / -4.102599 10.697900 2.880704 / -4077.683027 5955.655686 2745.918763
-0.002400 0.011350 0.005050 / -4.104999 10.709250 2.885754 / -4081.789226 5966.370610 2748.807042
-0.002400 0.011350 0.005050 / -4.107399 10.720600 2.890804 / -4085.897824 5977.096885 2751.700371
-0.002400 0.011350 0.005050 / -4.109799 10.731949 2.895854 / -4090.008823 5987.834509 2754.598749
-0.002400 0.011350 0.005050 / -4.112199 10.743299 2.900904 / -4094.122222 5998.583484 2757.502178
-0.002400 0.011350 0.005050 / -4.114599 10.754649 2.905954 / -4098.238021 6009.343808 2760.410657
-0.002400 0.011350 0.005050 / -4.116999 10.765999 2.911004 / -4102.356219 6020.115483 2763.324185
-0.002400 0.011350 0.005050 / -4.119399 10.777349 2.916054 / -4106.476818 6030.898507 2766.242764
-0.002400 0.011350 0.005050 / -4.121799 10.788699 2.921104 / -4110.599817 6041.692881 2769.166393
-0.002400 0.011350 0.005050 / -4.124199 10.800049 2.926154 / -4114.725216 6052.498606 2772.095072
-0.002400 0.011350 0.005050 / -4.126599 10.811399 2.931204 / -4118.853014 6063.315680 2775.028800
-0.002400 0.011350 0.005050 / -4.128999 10.822749 2.936254 / -4122.983213 6074.144104 2777.967579
-0.002400 0.011350 0.005050 / -4.131399 10.834099 2.941304 / -4127.115812 6084.983879 2780.911408
-0.002400 0.011350 0.005050 / -4.133799 10.845449 2.946354 / -4131.250810 6095.835003 2783.860286
-0.002400 0.011350 0.005050 / -4.136199 10.856799 2.951404 / -4135.388209 6106.697477 2786.814215
-0.002400 0.011350 0.005050 / -4.138599 10.868149 2.956454 / -4139.528008 6117.571301 2789.773194
-0.002400 0.011350 0.005050 / -4.140999 10.879499 2.961504 / -4143.670206 6128.456475 2792.737222
-0.002400 0.011350 0.005050 / -4.143399 10.890849 2.966554 / -4147.814805 6139.352999 2795.706301
-0.002400 0.011350 0.005050 / -4.145799 10.902199 2.971604 / -4151.961804 6150.260874 2798.680430
-0.002400 0.011350 0.005050 / -4.148199 10.913549 2.976654 / -4156.111202 6161.180098 2801.659609
-0.002400 0.011350 0.005050 / -4.150599 10.924899 2.981704 / -4160.263001 6172.110672 2804.643837
-0.002400 0.011350 0.005050 / -4.152999 10.936249 2.986754 / -4164.417199 6183.052596 2807.633116
-0.002400 0.011350 0.005050 / -4.155399 10.947599 2.991804 / -4168.573798 6194.005870 2810.627445
-0.002400 0.011350 0.005050 / -4.157799 10.958949 2.996854 / -4172.732797 6204.970494 2813.626824
-0.002400 0.011350 0.005050 / -4.160199 10.970299 3.001904 / -4176.894195 6215.946468 2816.631252
-0.002400 0.011350 0.005050 / -4.162599 10.981649 3.006954 / -4181.057994 6226.933792 2819.640731
-0.002400 0.011350 0.005050 / -4.164999 10.992999 3.012004 / -4185.224192 6237.932466 2822.655260
-0.011275 0.001525 -0.009475 / -4.176274 10.994524 3.002529 / -4189.406103 6248.927752 2825.653051
-0.011275 0.001525 -0.009475 / -4.187549 10.996049 2.993054 / -4193.599289 6259.924563 2828.641367
-0.011275 0.001525 -0.009475 / -4.198824 10.997574 2.983579 / -4197.803750 6270.922900 2831.620209
-0.011275 0.001525 -0.009475 / -4.210099 10.999099 2.974104 / -4202.019486 6281.922761 2834.589575
-0.011275 0.001525 -0.009475 / -4.221373 11.000624 2.964629 / -4206.246497 6292.924147 2837.549466
-0.011275 0.001525 -0.009475 / -4.232648 11.002149 2.955154 / -4210.484783 6303.927058 2840.499882
-0.011275 0.001525 -0.009475 / -4.243923 11.003674 2.945679 / -4214.734344 6314.931495 2843.440824
-0.011275 0.001525 -0.009475 / -4.255198 11.005199 2.936204 / -4218.995180 6325.937456 2846.372290
-0.011275 0.001525 -0.009475 / -4.266473 11.006724 2.926729 / -4223.267291 6336.944942 2849.294281
-0.011275 0.001525 -0.009475 / -4.277748 11.008249 2.917254 / -4227.550677 6347.953953 2852.206797
-0.011275 0.001525 -0.009475 / -4.289023 11.009774 2.907779 / -4231.845338 6358.964489 2855.109839
-0.011275 0.001525 -0.009475 / -4.300298 11.011299 2.898304 / -4236.151274 6369.976550 2858.003405
-0.011275 0.001525 -0.009475 / -4.311573 11.012824 2.888829 / -4240.468485 6380.990136 2860.887496
-0.011275 0.001525 -0.009475 / -4.322848 11.014349 2.879354 / -4244.796971 6392.005247 2863.762112
-0.011275 0.001525 -0.009475 / -4.334123 11.015873 2.869879 / -4249.136732 6403.021883 2866.627254
-0.011275 0.001525 -0.009475 / -4.345398 11.017398 2.860404 / -4253.487768 6414.040044 2869.482920
-0.011275 0.001525 -0.009475 / -4.356673 11.018923 2.850929 / -4257.850079 6425.059730 2872.329111
-0.011275 0.001525 -0.009475 / -4.367948 11.020448 2.841454 / -4262.223665 6436.080941 2875.165827
-0.011275 0.001525 -0.009475 / -4.379223 11.021973 2.831979 / -4266.608525 6447.103677 2877.993069
-0.011275 0.001525 -0.009475 / -4.390498 11.023498 2.822504 / -4271.004661 6458.127937 2880.810835
-0.011275 0.001525 -0.009475 / -4.401773 11.025023 2.813029 / -4275.412072 6469.153723 2883.619126
-0.011275 0.001525 -0.009475 / -4.413048 11.026548 2.803554 / -4279.830758 6480.181034 2886.417942
-0.011275 0.001525 -0.009475 / -4.424323 11.028073 2.794079 / -4284.260719 6491.209870 2889.207284
-0.011275 0.001525 -0.009475 / -4.435598 11.029598 2.784604 / -4288.701955 6502.240230 2891.987150
-0.011275 0.001525 -0.009475 / -4.446873 11.031123 2.775129 / -4293.154466 6513.272116 2894.757541
-0.011275 0.001525 -0.009475 / -4.458148 11.032648 2.765654 / -4297.618252 6524.305527 2897.518457
-0.011275 0.001525 -0.009475 / -4.469423 11.034173 2.756179 / -4302.093312 6535.340462 2900.269898
-0.011275 0.001525 -0.009475 / -4.480698 11.035698 2.746704 / -4306.579648 6546.376923 2903.011865
-0.011275 0.001525 -0.009475 / -4.491973 11.037223 2.737229 / -4311.077259 6557.414908 2905.744356
-0.011275 0.001525 -0.009475 / -4.503248 11.038748 2.727754 / -4315.586145 6568.454419 2908.467372
-0.011275 0.001525 -0.009475 / -4.514523 11.040273 2.718279 / -4320.106306 6579.495454 2911.180913
-0.011275 0.001525 -0.009475 / -4.525798 11.041798 2.708804 / -4324.637742 6590.538015 2913.884980
-0.011275 0.001525 -0.009475 / -4.537073 11.043323 2.699329 / -4329.180452 6601.582100 2916.579571
-0.011275 0.001525 -0.009475 / -4.548348 11.044848 2.689854 / -4333.734438 6612.627711 2919.264687
-0.011275 0.001525 -0.009475 / -4.559623 11.046373 2.680379 / -4338.299699 6623.674846 2921.940328
-0.011275 0.001525 -0.009475 / -4.570898 11.047898 2.670904 / -4342.876235 6634.723506 2924.606495
-0.011275 0.001525 -0.009475 / -4.582173 11.049423 2.661429 / -4347.464046 6645.773692 2927.263186
-0.011275 0.001525 -0.009475 / -4.593448 11.050948 2.651954 / -4352.063131 6656.825402 2929.910402
-0.011275 0.001525 -0.009475 / -4.604723 11.052473 2.642479 / -4356.673492 6667.878637 2932.548143
-0.011275 0.001525 -0.009475 / -4.615998 11.053998 2.633004 / -4361.295128 6678.933397 2935.176410
-0.019075 -0.013525 -0.000750 / -4.635073 11.040473 2.632254 / -4365.939739 6689.967108 2937.808288
-0.019075 -0.013525 -0.000750 / -4.654148 11.026948 2.631504 / -4370.603424 6700.987293 2940.439417
-0.019075 -0.013525 -0.000750 / -4.673223 11.013423 2.630754 / -4375.286185 6711.993953 2943.069796
-0.019075 -0.013525 -0.000750 / -4.692298 10.999898 2.630004 / -4379.988021 6722.987088 2945.699425
-0.019075 -0.013525 -0.000750 / -4.711373 10.986373 2.629254 / -4384.708932 6733.966699 2948.328303
-0.019075 -0.013525 -0.000750 / -4.730448 10.972848 2.628504 / -4389.448918 6744.932784 2950.956432
-0.019075 -0.013525 -0.000750 / -4.749523 10.959323 2.627754 / -4394.207978 6755.885344 2953.583811
-0.019075 -0.013525 -0.000750 / -4.768598 10.945798 2.627004 / -4398.986114 6766.824379 2956.210439
-0.019075 -0.013525 -0.000750 / -4.787673 10.932273 2.626254 / -4403.783325 6777.749890 2958.836318
-0.019075 -0.013525 -0.000750 / -4.806748 10.918748 2.625504 / -4408.599611 6788.661875 2961.461447
-0.019075 -0.013525 -0.000750 / -4.825823 10.905223 2.624754 / -4413.434972 6799.560335 2964.085825
-0.019075 -0.013525 -0.000750 / -4.844898 10.891698 2.624004 / -4418.289408 6810.445271 2966.709454
-0.019075 -0.013525 -0.000750 / -4.863973 10.878173 2.623254 / -4423.162918 6821.316681 2969.332333
-0.019075 -0.013525 -0.000750 / -4.883048 10.864648 2.622504 / -4428.055504 6832.174566 2971.954461
-0.019075 -0.013525 -0.000750 / -4.902123 10.851123 2.621754 / -4432.967165 6843.018926 2974.575840
-0.019075 -0.013525 -0.000750 / -4.921198 10.837598 2.621004 / -4437.897901 6853.849762 2977.196469
-0.019075 -0.013525 -0.000750 / -4.940273 10.824073 2.620254 / -4442.847712 6864.667072 2979.816347
-0.019075 -0.013525 -0.000750 / -4.959348 10.810548 2.619504 / -4447.816598 6875.470857 2982.435476
-0.019075 -0.013525 -0.000750 / -4.978423 10.797023 2.618754 / -4452.804559 6886.261118 2985.053855
-0.019075 -0.013525 -0.000750 / -4.997498 10.783498 2.618004 / -4457.811595 6897.037853 2987.671483
-0.019075 -0.013525 -0.000750 / -5.016573 10.769973 2.617254 / -4462.837706 6907.801064 2990.288362
-0.019075 -0.013525 -0.000750 / -5.035648 10.756448 2.616504 / -4467.882891 6918.550749 2992.904491
-0.019075 -0.013525 -0.000750 / -5.054723 10.742923 2.615754 / -4472.947152 6929.286909 2995.519869
-0.019075 -0.013525 -0.000750 / -5.073798 10.729398 2.615004 / -4478.030488 6940.009545 2998.134498
-0.019075 -0.013525 -0.000750 / -5.092873 10.715873 2.614254 / -4483.132899 6950.718655 3000.748376
-0.019075 -0.013525 -0.000750 / -5.111948 10.702348 2.613504 / -4488.254385 6961.414240 3003.361505
-0.019075 -0.013525 -0.000750 / -5.131023 10.688823 2.612754 / -4493.394946 6972.096301 3005.973884
-0.019075 -0.013525 -0.000750 / -5.150098 10.675298 2.612004 / -4498.554582 6982.764836 3008.585512
-0.019075 -0.013525 -0.000750 / -5.169173 10.661773 2.611254 / -4503.733293 6993.419846 3011.196391
-0.019075 -0.013525 -0.000750 / -5.188248 10.648248 2.610504 / -4508.931079 7004.061332 3013.806519
-0.019075 -0.013525 -0.000750 / -5.207323 10.634723 2.609754 / -4514.147940 7014.689292 3016.415898
-0.019075 -0.013525 -0.000750 / -5.226398 10.621198 2.609004 / -4519.383876 7025.303728 3019.024527
-0.019075 -0.013525 -0.000750 / -5.245473 10.607673 2.608254 / -4524.638887 7035.904638 3021.632405
-0.019075 -0.013525 -0.000750 / -5.264548 10.594148 2.607504 / -4529.912973 7046.492024 3024.239534
-0.019075 -0.013525 -0.000750 / -5.283623 10.580623 2.606754 / -4535.206134 7057.065884 3026.845912
-0.019075 -0.013525 -0.000750 / -5.302698 10.567098 2.606004 / -4540.518370 7067.626219 3029.451541
-0.019075 -0.013525 -0.000750 / -5.321773 10.553573 2.605254 / -4545.849681 7078.173030 3032.056419
-0.019075 -0.013525 -0.000750 / -5.340849 10.540048 2.604504 / -4551.200067 7088.706315 3034.660548
-0.019075 -0.013525 -0.000750 / -5.359924 10.526523 2.603754 / -4556.569528 7099.226076 3037.263926
-0.019075 -0.013525 -0.000750 / -5.378999 10.512998 2.603004 / -4561.958064 7109.732311 3039.866555
-0.012525 0.006450 0.000150 / -5.391523 10.519448 2.603154 / -4567.355850 7120.254984 3042.469783
-0.012525 0.006450 0.000150 / -5.404048 10.525898 2.603304 / -4572.766161 7130.784107 3045.073162
-0.012525 0.006450 0.000150 / -5.416573 10.532348 2.603453 / -4578.188997 7141.319680 3047.676690
-0.012525 0.006450 0.000150 / -5.429098 10.538798 2.603603 / -4583.624358 7151.861703 3050.280369
-0.012525 0.006450 0.000150 / -5.441623 10.545248 2.603753 / -4589.072244 7162.410176 3052.884197
-0.012525 0.006450 0.000150 / -5.454148 10.551698 2.603903 / -4594.532654 7172.965099 3055.488176
-0.012525 0.006450 0.000150 / -5.466673 10.558148 2.604053 / -4600.005590 7183.526473 3058.092304
-0.012525 0.006450 0.000150 / -5.479198 10.564598 2.604203 / -4605.491051 7194.094296 3060.696583
-0.012525 0.006450 0.000150 / -5.491723 10.571048 2.604353 / -4610.989037 7204.668569 3063.301011
-0.012525 0.006450 0.000150 / -5.504248 10.577498 2.604503 / -4616.499548 7215.249292 3065.905589
-0.012525 0.006450 0.000150 / -5.516773 10.583948 2.604653 / -4622.022583 7225.836465 3068.510318
-0.012525 0.006450 0.000150 / -5.529298 10.590398 2.604803 / -4627.558144 7236.430088 3071.115196
-0.012525 0.006450 0.000150 / -5.541823 10.596848 2.604953 / -4633.106230 7247.030162 3073.720225
-0.012525 0.006450 0.000150 / -5.554348 10.603298 2.605103 / -4638.666841 7257.636685 3076.325403
-0.012525 0.006450 0.000150 / -5.566873 10.609748 2.605253 / -4644.239976 7268.249658 3078.930731
-0.012525 0.006450 0.000150 / -5.579398 10.616198 2.605403 / -4649.825637 7278.869081 3081.536210
-0.012525 0.006450 0.000150 / -5.591923 10.622648 2.605553 / -4655.423822 7289.494955 3084.141838
-0.012525 0.006450 0.000150 / -5.604448 10.629098 2.605703 / -4661.034533 7300.127278 3086.747616
-0.012525 0.006450 0.000150 / -5.616973 10.635548 2.605853 / -4666.657769 7310.766051 3089.353545
-0.012525 0.006450 0.000150 / -5.629498 10.641998 2.606003 / -4672.293529 7321.411275 3091.959623
-0.012525 0.006450 0.000150 / -5.642023 10.648448 2.606153 / -4677.941815 7332.062948 3094.565851
-0.012525 0.006450 0.000150 / -5.654548 10.654898 2.606303 / -4683.602625 7342.721071 3097.172229
-0.012525 0.006450 0.000150 / -5.667073 10.661348 2.606453 / -4689.275961 7353.385645 3099.778758
-0.012525 0.006450 0.000150 / -5.679598 10.667798 2.606603 / -4694.961821 7364.056668 3102.385436
-0.012525 0.006450 0.000150 / -5.692123 10.674248 2.606753 / -4700.660207 7374.734142 3104.992264
-0.012525 0.006450 0.000150 / -5.704648 10.680698 2.606903 / -4706.371117 7385.418065 3107.599242
-0.012525 0.006450 0.000150 / -5.717173 10.687148 2.607053 / -4712.094552 7396.108439 3110.206370
-0.012525 0.006450 0.000150 / -5.729698 10.693599 2.607203 / -4717.830513 7406.805262 3112.813649
-0.012525 0.006450 0.000150 / -5.742223 10.700049 2.607353 / -4723.578998 7417.508536 3115.421077
-0.012525 0.006450 0.000150 / -5.754748 10.706499 2.607503 / -4729.340008 7428.218259 3118.028655
-0.012525 0.006450 0.000150 / -5.767273 10.712949 2.607653 / -4735.113544 7438.934433 3120.636383
-0.012525 0.006450 0.000150 / -5.779798 10.719399 2.607803 / -4740.899604 7449.657057 3123.244261
-0.012525 0.006450 0.000150 / -5.792323 10.725849 2.607953 / -4746.698189 7460.386130 3125.852289
-0.012525 0.006450 0.000150 / -5.804848 10.732299 2.608103 / -4752.509300 7471.121654 3128.460467
-0.012525 0.006450 0.000150 / -5.817373 10.738749 2.608253 / -4758.332935 7481.863627 3131.068795
-0.012525 0.006450 0.000150 / -5.829898 10.745199 2.608403 / -4764.169095 7492.612051 3133.677274
-0.012525 0.006450 0.000150 / -5.842423 10.751649 2.608553 / -4770.017780 7503.366925 3136.285902
-0.012525 0.006450 0.000150 / -5.854948 10.758099 2.608703 / -4775.878990 7514.128249 3138.894680
-0.012525 0.006450 0.000150 / -5.867473 10.764549 2.608853 / -4781.752725 7524.896022 3141.503608
-0.012525 0.006450 0.000150 / -5.879998 10.770999 2.609003 / -4787.638986 7535.670246 3144.112686
0.010100 0.004200 -0.020425 / -5.869898 10.775199 2.588578 / -4793.503833 7546.447545 3146.691051
0.010100 0.004200 -0.020425 / -5.859798 10.779399 2.568153 / -4799.358581 7557.229044 3149.248992
0.010100 0.004200 -0.020425 / -5.849698 10.783599 2.547728 / -4805.203228 7568.014742 3151.786507
0.010100 0.004200 -0.020425 / -5.839598 10.787799 2.527303 / -4811.037776 7578.804641 3154.303598
0.010100 0.004200 -0.020425 / -5.829498 10.791999 2.506878 / -4816.862224 7589.598740 3156.800263
0.010100 0.004200 -0.020425 / -5.819398 10.796199 2.486453 / -4822.676572 7600.397038 3159.276503
0.010100 0.004200 -0.020425 / -5.809298 10.800399 2.466028 / -4828.480819 7611.199537 3161.732319
0.010100 0.004200 -0.020425 / -5.799198 10.804599 2.445603 / -4834.274967 7622.006236 3164.167709
0.010100 0.004200 -0.020425 / -5.789098 10.808799 2.425178 / -4840.059015 7632.817135 3166.582674
0.010100 0.004200 -0.020425 / -5.778998 10.812999 2.404753 / -4845.832963 7643.632233 3168.977214
0.010100 0.004200 -0.020425 / -5.768898 10.817199 2.384328 / -4851.596810 7654.451532 3171.351330
0.010100 0.004200 -0.020425 / -5.758798 10.821399 2.363903 / -4857.350558 7665.275031 3173.705020
0.010100 0.004200 -0.020425 / -5.748698 10.825599 2.343478 / -4863.094206 7676.102729 3176.038285
0.010100 0.004200 -0.020425 / -5.738598 10.829799 2.323053 / -4868.827754 7686.934628 3178.351125
0.010100 0.004200 -0.020425 / -5.728498 10.833999 2.302628 / -4874.551202 7697.770727 3180.643540
0.010100 0.004200 -0.020425 / -5.718398 10.838199 2.282203 / -4880.264549 7708.611025 3182.915530
0.010100 0.004200 -0.020425 / -5.708298 10.842399 2.261778 / -4885.967797 7719.455524 3185.167095
0.010100 0.004200 -0.020425 / -5.698198 10.846599 2.241353 / -4891.660945 7730.304223 3187.398235
0.010100 0.004200 -0.020425 / -5.688098 10.850799 2.220927 / -4897.343993 7741.157122 3189.608950
0.010100 0.004200 -0.020425 / -5.677998 10.854999 2.200502 / -4903.016941 7752.014220 3191.799240
0.010100 0.004200 -0.020425 / -5.667898 10.859199 2.180077 / -4908.679789 7762.875519 3193.969105
0.010100 0.004200 -0.020425 / -5.657798 10.863399 2.159652 / -4914.332537 7773.741018 3196.118545
0.010100 0.004200 -0.020425 / -5.647698 10.867599 2.139227 / -4919.975185 7784.610716 3198.247560
0.010100 0.004200 -0.020425 / -5.637598 10.871799 2.118802 / -4925.607733 7795.484615 3200.356150
0.010100 0.004200 -0.020425 / -5.627498 10.875999 2.098377 / -4931.230181 7806.362714 3202.444314
0.010100 0.004200 -0.020425 / -5.617398 10.880199 2.077952 / -4936.842529 7817.245012 3204.512054
0.010100 0.004200 -0.020425 / -5.607298 10.884399 2.057527 / -4942.444777 7828.131511 3206.559369
0.010100 0.004200 -0.020425 / -5.597198 10.888599 2.037102 / -4948.036925 7839.022209 3208.586259
0.010100 0.004200 -0.020425 / -5.587098 10.892799 2.016677 / -4953.618973 7849.917108 3210.592723
0.010100 0.004200 -0.020425 / -5.576998 10.896999 1.996252 / -4959.190921 7860.816207 3212.578763
0.010100 0.004200 -0.020425 / -5.566898 10.901199 1.975827 / -4964.752769 7871.719505 3214.544378
0.010100 0.004200 -0.020425 / -5.556798 10.905399 1.955402 / -4970.304517 7882.627004 3216.489567
0.010100 0.004200 -0.020425 / -5.546698 10.909599 1.934977 / -4975.846166 7893.538703 3218.414332
0.010100 0.004200 -0.020425 / -5.536598 10.913799 1.914552 / -4981.377714 7904.454601 3220.318671
0.010100 0.004200 -0.020425 / -5.526498 10.917999 1.894127 / -4986.899162 7915.374700 3222.202586
0.010100 0.004200 -0.020425 / -5.516398 10.922199 1.873702 / -4992.410510 7926.298999 3224.066075
0.010100 0.004200 -0.020425 / -5.506298 10.926399 1.853277 / -4997.911758 7937.227497 3225.909140
0.010100 0.004200 -0.020425 / -5.496198 10.930599 1.832852 / -5003.402906 7948.160196 3227.731779
0.010100 0.004200 -0.020425 / -5.486098 10.934799 1.812427 / -5008.883955 7959.097094 3229.533993
0.010100 0.004200 -0.020425 / -5.475998 10.938999 1.792002 / -5014.354903 7970.038193 3231.315783
0.015700 0.001225 -0.008800 / -5.460298 10.940224 1.783202 / -5019.807351 7980.979029 3233.094585
0.015700 0.001225 -0.008800 / -5.444598 10.941449 1.774402 / -5025.244099 7991.921090 3234.864587
0.015700 0.001225 -0.008800 / -5.428898 10.942674 1.765602 / -5030.665147 8002.864376 3236.625789
0.015700 0.001225 -0.008800 / -5.413198 10.943899 1.756802 / -5036.070495 8013.808888 3238.378191
0.015700 0.001225 -0.008800 / -5.397498 10.945124 1.748002 / -5041.460144 8024.754624 3240.121793
0.015700 0.001225 -0.008800 / -5.381798 10.946349 1.739202 / -5046.834092 8035.701585 3241.856595
0.015700 0.001225 -0.008800 / -5.366098 10.947574 1.730402 / -5052.192340 8046.649771 3243.582598
0.015700 0.001225 -0.008800 / -5.350398 10.948799 1.721602 / -5057.534888 8057.599183 3245.299800
0.015700 0.001225 -0.008800 / -5.334698 10.950024 1.712802 / -5062.861736 8068.549819 3247.008202
0.015700 0.001225 -0.008800 / -5.318998 10.951249 1.704002 / -5068.172884 8079.501680 3248.707805
0.015700 0.001225 -0.008800 / -5.303298 10.952474 1.695202 / -5073.468332 8090.454766 3250.398607
0.015700 0.001225 -0.008800 / -5.287598 10.953699 1.686402 / -5078.748080 8101.409078 3252.080610
0.015700 0.001225 -0.008800 / -5.271898 10.954924 1.677603 / -5084.012128 8112.364614 3253.753812
0.015700 0.001225 -0.008800 / -5.256198 10.956149 1.668803 / -5089.260476 8123.321375 3255.418215
0.015700 0.001225 -0.008800 / -5.240498 10.957374 1.660003 / -5094.493124 8134.279362 3257.073818
0.015700 0.001225 -0.008800 / -5.224798 10.958599 1.651203 / -5099.710072 8145.238573 3258.720620
0.015700 0.001225 -0.008800 / -5.209098 10.959824 1.642403 / -5104.911319 8156.199010 3260.358623
0.015700 0.001225 -0.008800 / -5.193398 10.961049 1.633603 / -5110.096867 8167.160671 3261.987826
0.015700 0.001225 -0.008800 / -5.177698 10.962274 1.624803 / -5115.266715 8178.123557 3263.608229
0.015700 0.001225 -0.008800 / -5.161998 10.963499 1.616003 / -5120.420863 8189.087669 3265.219832
0.015700 0.001225 -0.008800 / -5.146298 10.964724 1.607203 / -5125.559311 8200.053005 3266.822635
0.015700 0.001225 -0.008800 / -5.130598 10.965949 1.598403 / -5130.682058 8211.019567 3268.416638
0.015700 0.001225 -0.008800 / -5.114898 10.967174 1.589603 / -5135.789106 8221.987353 3270.001841
0.015700 0.001225 -0.008800 / -5.099198 10.968399 1.580803 / -5140.880454 8232.956365 3271.578244
0.015700 0.001225 -0.008800 / -5.083498 10.969624 1.572003 / -5145.956102 8243.926602 3273.145847
0.015700 0.001225 -0.008800 / -5.067798 10.970849 1.563203 / -5151.016049 8254.898063 3274.704651
0.015700 0.001225 -0.008800 / -5.052098 10.972074 1.554403 / -5156.060297 8265.870750 3276.254654
0.015700 0.001225 -0.008800 / -5.036398 10.973299 1.545603 / -5161.088845 8276.844661 3277.795857
0.015700 0.001225 -0.008800 / -5.020698 10.974524 1.536803 / -5166.101692 8287.819798 3279.328261
0.015700 0.001225 -0.008800 / -5.004998 10.975749 1.528003 / -5171.098840 8298.796159 3280.851864
0.015700 0.001225 -0.008800 / -4.989298 10.976974 1.519203 / -5176.080288 8309.773746 3282.366668
0.015700 0.001225 -0.008800 / -4.973598 10.978199 1.510404 / -5181.046035 8320.752558 3283.872671
0.015700 0.001225 -0.008800 / -4.957898 10.979424 1.501604 / -5185.996083 8331.732594 3285.369875
0.015700 0.001225 -0.008800 / -4.942198 10.980649 1.492804 / -5190.930430 8342.713856 3286.858278
0.015700 0.001225 -0.008800 / -4.926498 10.981874 1.484004 / -5195.849078 8353.696343 3288.337882
0.015700 0.001225 -0.008800 / -4.910798 10.983099 1.475204 / -5200.752025 8364.680055 3289.808686
0.015700 0.001225 -0.008800 / -4.895097 10.984324 1.466404 / -5205.639273 8375.664991 3291.270690
0.015700 0.001225 -0.008800 / -4.879397 10.985549 1.457604 / -5210.510820 8386.651153 3292.723894
0.015700 0.001225 -0.008800 / -4.863697 10.986774 1.448804 / -5215.366668 8397.638540 3294.168298
0.015700 0.001225 -0.008800 / -4.847997 10.987999 1.440004 / -5220.206815 8408.627152 3295.603902
0.001100 0.021400 0.003375 / -4.846897 11.009399 1.443379 / -5225.053162 8419.647251 3297.048968
0.001100 0.021400 0.003375 / -4.845797 11.030799 1.446754 / -5229.898410 8430.688750 3298.497410
0.001100 0.021400 0.003375 / -4.844697 11.052199 1.450129 / -5234.742557 8441.751650 3299.949226
0.001100 0.021400 0.003375 / -4.843597 11.073599 1.453504 / -5239.585605 8452.835949 3301.404417
0.001100 0.021400 0.003375 / -4.842497 11.094999 1.456879 / -5244.427552 8463.941649 3302.862984
0.001100 0.021400 0.003375 / -4.841397 11.116399 1.460254 / -5249.268400 8475.068748 3304.324925
0.001100 0.021400 0.003375 / -4.840297 11.137799 1.463629 / -5254.108147 8486.217248 3305.790242
0.001100 0.021400 0.003375 / -4.839197 11.159200 1.467004 / -5258.946795 8497.387147 3307.258933
0.001100 0.021400 0.003375 / -4.838097 11.180600 1.470379 / -5263.784342 8508.578447 3308.731000
0.001100 0.021400 0.003375 / -4.836997 11.202000 1.473754 / -5268.620789 8519.791146 3310.206441
0.001100 0.021400 0.003375 / -4.835897 11.223400 1.477129 / -5273.456137 8531.025246 3311.685258
0.001100 0.021400 0.003375 / -4.834797 11.244800 1.480504 / -5278.290384 8542.280745 3313.167449
0.001100 0.021400 0.003375 / -4.833697 11.266200 1.483879 / -5283.123532 8553.557645 3314.653016
0.001100 0.021400 0.003375 / -4.832597 11.287600 1.487254 / -5287.955579 8564.855945 3316.141957
0.001100 0.021400 0.003375 / -4.831497 11.309000 1.490629 / -5292.786527 8576.175644 3317.634274
0.001100 0.021400 0.003375 / -4.830397 11.330400 1.494004 / -5297.616374 8587.516744 3319.129965
0.001100 0.021400 0.003375 / -4.829297 11.351800 1.497379 / -5302.445122 8598.879244 3320.629032
0.001100 0.021400 0.003375 / -4.828197 11.373200 1.500754 / -5307.272769 8610.263144 3322.131473
0.001100 0.021400 0.003375 / -4.827097 11.394600 1.504129 / -5312.099317 8621.668444 3323.637290
0.001100 0.021400 0.003375 / -4.825998 11.416000 1.507504 / -5316.924764 8633.095143 3325.146481
0.001100 0.021400 0.003375 / -4.824898 11.437400 1.510879 / -5321.749112 8644.543243 3326.659048
0.001100 0.021400 0.003375 / -4.823798 11.458800 1.514254 / -5326.572359 8656.012743 3328.174989
0.001100 0.021400 0.003375 / -4.822698 11.480200 1.517629 / -5331.394507 8667.503643 3329.694306
0.001100 0.021400 0.003375 / -4.821598 11.501600 1.521004 / -5336.215554 8679.015943 3331.216997
0.001100 0.021400 0.003375 / -4.820498 11.523000 1.524379 / -5341.035502 8690.549643 3332.743064
0.001100 0.021400 0.003375 / -4.819398 11.544400 1.527754 / -5345.854349 8702.104743 3334.272505
0.001100 0.021400 0.003375 / -4.818298 11.565800 1.531129 / -5350.672097 8713.681243 3335.805322
0.001100 0.021400 0.003375 / -4.817198 11.587200 1.534504 / -5355.488745 8725.279143 3337.341513
0.001100 0.021400 0.003375 / -4.816098 11.608600 1.537879 / -5360.304292 8736.898443 3338.881080
0.001100 0.021400 0.003375 / -4.814998 11.630000 1.541254 / -5365.118740 8748.539143 3340.424021
0.001100 0.021400 0.003375 / -4.813898 11.651400 1.544629 / -5369.932087 8760.201243 3341.970338
0.001100 0.021400 0.003375 / -4.812798 11.672800 1.548004 / -5374.744335 8771.884744 3343.520029
0.001100 0.021400 0.003375 / -4.811698 11.694200 1.551379 / -5379.555482 8783.589644 3345.073096
0.001100 0.021400 0.003375 / -4.810598 11.715600 1.554754 / -5384.365530 8795.315944 3346.629537
0.001100 0.021400 0.003375 / -4.809498 11.737000 1.558129 / -5389.174477 8807.063644 3348.189354
0.001100 0.021400 0.003375 / -4.808398 11.758400 1.561504 / -5393.982325 8818.832745 3349.752545
0.001100 0.021400 0.003375 / -4.807298 11.779800 1.564879 / -5398.789072 8830.623245 3351.319112
0.001100 0.021400 0.003375 / -4.806198 11.801200 1.568254 / -5403.594720 8842.435145 3352.889053
0.001100 0.021400 0.003375 / -4.805098 11.822600 1.571629 / -5408.399268 8854.268446 3354.462370
0.001100 0.021400 0.003375 / -4.803998 11.844000 1.575004 / -5413.202715 8866.123146 3356.039061
-0.002875 0.002525 -0.004900 / -4.806873 11.846525 1.570104 / -5418.011025 8877.970934 3357.606715
-0.002875 0.002525 -0.004900 / -4.809748 11.849050 1.565204 / -5422.822210 8889.821247 3359.169469
-0.002875 0.002525 -0.004900 / -4.812623 11.851575 1.560304 / -5427.636271 8901.674085 3360.727323
-0.002875 0.002525 -0.004900 / -4.815498 11.854100 1.555404 / -5432.453206 8913.529448 3362.280277
-0.002875 0.002525 -0.004900 / -4.818373 11.856625 1.550504 / -5437.273016 8925.387336 3363.828331
-0.002875 0.002525 -0.004900 / -4.821248 11.859151 1.545604 / -5442.095701 8937.247749 3365.371485
-0.002875 0.002525 -0.004900 / -4.824123 11.861676 1.540704 / -5446.921261 8949.110687 3366.909739
-0.002875 0.002525 -0.004900 / -4.826998 11.864201 1.535804 / -5451.749696 8960.976150 3368.443093
-0.002875 0.002525 -0.004900 / -4.829873 11.866726 1.530904 / -5456.581006 8972.844138 3369.971548
-0.002875 0.002525 -0.004900 / -4.832748 11.869251 1.526004 / -5461.415191 8984.714651 3371.495102
-0.002875 0.002525 -0.004900 / -4.835623 11.871776 1.521104 / -5466.252252 8996.587689 3373.013756
-0.002875 0.002525 -0.004900 / -4.838498 11.874301 1.516204 / -5471.092187 9008.463252 3374.527510
-0.002875 0.002525 -0.004900 / -4.841373 11.876826 1.511304 / -5475.934997 9020.341341 3376.036364
-0.002875 0.002525 -0.004900 / -4.844248 11.879351 1.506404 / -5480.780682 9032.221954 3377.540318
-0.002875 0.002525 -0.004900 / -4.847123 11.881876 1.501504 / -5485.629242 9044.105092 3379.039372
-0.002875 0.002525 -0.004900 / -4.849998 11.884401 1.496604 / -5490.480678 9055.990755 3380.533526
-0.002875 0.002525 -0.004900 / -4.852873 11.886926 1.491704 / -5495.334988 9067.878944 3382.022780
-0.002875 0.002525 -0.004900 / -4.855748 11.889451 1.486804 / -5500.192173 9079.769657 3383.507134
-0.002875 0.002525 -0.004900 / -4.858623 11.891976 1.481904 / -5505.052233 9091.662895 3384.986589
-0.002875 0.002525 -0.004900 / -4.861498 11.894501 1.477004 / -5509.915168 9103.558659 3386.461143
-0.002875 0.002525 -0.004900 / -4.864373 11.897026 1.472104 / -5514.780979 9115.456947 3387.930797
-0.002875 0.002525 -0.004900 / -4.867248 11.899551 1.467204 / -5519.649664 9127.357760 3389.395551
-0.002875 0.002525 -0.004900 / -4.870123 11.902076 1.462304 / -5524.521224 9139.261099 3390.855405
-0.002875 0.002525 -0.004900 / -4.872998 11.904601 1.457404 / -5529.395659 9151.166962 3392.310359
-0.002875 0.002525 -0.004900 / -4.875873 11.907126 1.452504 / -5534.272970 9163.075351 3393.760414
-0.002875 0.002525 -0.004900 / -4.878748 11.909651 1.447604 / -5539.153155 9174.986264 3395.205568
-0.002875 0.002525 -0.004900 / -4.881623 11.912176 1.442704 / -5544.036215 9186.899703 3396.645822
-0.002875 0.002525 -0.004900 / -4.884498 11.914701 1.437804 / -5548.922151 9198.815666 3398.081176
-0.002875 0.002525 -0.004900 / -4.887373 11.917226 1.432904 / -5553.810961 9210.734155 3399.511630
-0.002875 0.002525 -0.004900 / -4.890248 11.919751 1.428004 / -5558.702646 9222.655169 3400.937185
-0.002875 0.002525 -0.004900 / -4.893123 11.922276 1.423104 / -5563.597207 9234.578707 3402.357839
-0.002875 0.002525 -0.004900 / -4.895998 11.924801 1.418204 / -5568.494642 9246.504771 3403.773593
-0.002875 0.002525 -0.004900 / -4.898873 11.927326 1.413304 / -5573.394952 9258.433360 3405.184447
-0.002875 0.002525 -0.004900 / -4.901748 11.929851 1.408404 / -5578.298138 9270.364473 3406.590401
-0.002875 0.002525 -0.004900 / -4.904623 11.932376 1.403504 / -5583.204198 9282.298112 3407.991456
-0.002875 0.002525 -0.004900 / -4.907498 11.934901 1.398604 / -5588.113133 9294.234276 3409.387610
-0.002875 0.002525 -0.004900 / -4.910373 11.937426 1.393704 / -5593.024944 9306.172965 3410.778864
-0.002875 0.002525 -0.004900 / -4.913248 11.939951 1.388804 / -5597.939629 9318.114178 3412.165218
-0.002875 0.002525 -0.004900 / -4.916123 11.942476 1.383904 / -5602.857189 9330.057917 3413.546673
-0.002875 0.002525 -0.004900 / -4.918998 11.945001 1.379004 / -5607.777625 9342.004181 3414.923227
-0.005700 -0.015875 0.017900 / -4.924698 11.929126 1.396904 / -5612.705173 9353.925370 3416.329081
-0.005700 -0.015875 0.017900 / -4.930398 11.913251 1.414804 / -5617.638420 9365.830684 3417.752836
-0.005700 -0.015875 0.017900 / -4.936098 11.897376 1.432704 / -5622.577368 9377.720123 3419.194490
